timestamp,attitude_roll,attitude_pitch,attitude_yaw,rotation_rate_x,rotation_rate_y,rotation_rate_z,gravity_x,gravity_y,gravity_z,user_acc_x,user_acc_y,user_acc_z,magnetic_field_x,magnetic_field_y,magnetic_field_z
1968.30,0.084515,0.613789,-0.135862,-0.047537,0.140379,0.089725,0.069007,-0.575969,-0.814553,0.025094,-0.000111,0.067590,0.849242,-31.214233,-24.697168
1968.31,0.085834,0.613560,-0.134700,-0.093287,0.163607,0.107776,0.070092,-0.575782,-0.814593,0.012229,0.005912,0.056689,0.870784,-31.241726,-24.661634
1968.32,0.086713,0.612358,-0.133206,-0.136485,0.160379,0.103647,0.070868,-0.574798,-0.815221,0.015878,0.014343,0.052129,0.870784,-31.241726,-24.661634
1968.33,0.087296,0.610407,-0.131794,-0.212969,0.118861,0.088072,0.071440,-0.573201,-0.816294,0.021623,0.027532,0.060404,0.896959,-31.227312,-24.678944
1968.34,0.087506,0.607423,-0.130526,-0.315363,0.080014,0.067309,0.071761,-0.570753,-0.817980,0.024262,0.028227,0.069094,0.896959,-31.227312,-24.678944
1968.35,0.088341,0.603906,-0.129676,-0.425236,0.080973,0.064984,0.072621,-0.567862,-0.819914,0.021282,0.014685,0.082137,0.908979,-31.146435,-24.780499
1968.36,0.088654,0.598829,-0.128171,-0.504298,0.122657,0.074082,0.073132,-0.563676,-0.822752,0.018619,-0.011413,0.075819,0.908979,-31.146435,-24.780499
1968.37,0.089510,0.593266,-0.126677,-0.537622,0.172500,0.067609,0.074115,-0.559072,-0.825800,0.023068,-0.019846,0.024805,0.928949,-30.982552,-24.984362
1968.38,0.090976,0.587937,-0.125316,-0.514224,0.181862,0.083874,0.075596,-0.554646,-0.828645,0.026837,-0.025112,-0.012221,0.928949,-30.982552,-24.984362
1968.39,0.091357,0.583103,-0.123337,-0.448915,0.120670,0.122721,0.076155,-0.550617,-0.831277,0.024675,-0.014111,-0.035193,0.953867,-30.711931,-25.315357
1968.40,0.090928,0.579214,-0.121112,-0.356385,0.061761,0.145809,0.075992,-0.547366,-0.833436,0.012173,0.001818,-0.050048,0.953867,-30.711931,-25.315357
1968.41,0.090014,0.576238,-0.118779,-0.282469,0.025913,0.166330,0.075377,-0.544874,-0.835123,0.010637,-0.000567,-0.059988,0.991581,-30.449501,-25.628977
1968.43,0.088755,0.573140,-0.116150,-0.306186,-0.078225,0.242496,0.074474,-0.542273,-0.836895,0.047337,-0.036096,-0.070774,0.924836,-30.267710,-25.845894
1968.44,0.084179,0.569490,-0.112097,-0.390311,-0.277142,0.299529,0.070810,-0.539203,-0.839194,0.062018,-0.050107,-0.048807,0.924836,-30.267710,-25.845894
1968.45,0.078089,0.565298,-0.108266,-0.419749,-0.393751,0.253560,0.065874,-0.535668,-0.841855,0.015440,-0.034141,-0.011431,0.924836,-30.267710,-25.845894
1968.46,0.073806,0.561666,-0.105563,-0.325646,-0.199581,0.169497,0.062410,-0.532597,-0.844065,-0.063570,0.005421,0.015147,0.716295,-30.084660,-26.065300
1968.47,0.071104,0.559196,-0.102287,-0.119431,0.169606,0.139656,0.060223,-0.530505,-0.845540,-0.101254,0.038592,-0.008174,0.716295,-30.084660,-26.065300
1968.48,0.073437,0.559534,-0.100577,0.062041,0.323862,0.137827,0.062182,-0.530791,-0.845218,-0.089969,0.056167,-0.043850,0.389980,-29.871655,-26.316000
1968.49,0.075013,0.560836,-0.099156,0.122663,0.166488,0.113697,0.063462,-0.531894,-0.844429,-0.058823,0.060489,-0.051704,0.329134,-29.808907,-26.387888
1968.50,0.072923,0.560485,-0.097586,0.088399,-0.054991,0.040512,0.061711,-0.531597,-0.844746,-0.057575,0.058880,-0.028240,0.329134,-29.808907,-26.387888
1968.51,0.072111,0.560780,-0.097993,0.013443,-0.094810,-0.055198,0.061013,-0.531847,-0.844640,-0.049463,0.047746,-0.015391,0.280028,-29.829838,-26.364792
1968.52,0.072223,0.560668,-0.099398,-0.002358,-0.050752,-0.125621,0.061112,-0.531752,-0.844692,-0.038560,0.029311,-0.003910,0.280028,-29.829838,-26.364792
1968.53,0.072699,0.560884,-0.101153,0.042128,-0.045028,-0.136275,0.061506,-0.531935,-0.844549,-0.014829,0.016630,0.006536,0.281461,-29.837151,-26.356499
1968.54,0.073467,0.561682,-0.102909,0.091418,-0.040783,-0.109890,0.062124,-0.532610,-0.844078,0.012675,0.007708,0.015358,0.281461,-29.837151,-26.356499
1968.55,0.073966,0.562865,-0.104135,0.127129,-0.005006,-0.086091,0.062498,-0.533612,-0.843417,0.020266,-0.006534,0.015964,0.351320,-29.868557,-26.320061
1968.56,0.074777,0.564373,-0.105325,0.155519,0.024942,-0.085795,0.063122,-0.534886,-0.842563,0.011448,-0.014431,0.009388,0.351320,-29.868557,-26.320061
1968.57,0.075931,0.566083,-0.106510,0.169066,0.054973,-0.078249,0.064025,-0.536330,-0.841577,0.005219,-0.010530,0.005517,0.351320,-29.868557,-26.320061
1968.58,0.077309,0.567859,-0.107678,0.151747,0.051438,-0.068558,0.065111,-0.537828,-0.840536,0.006392,-0.000975,0.008200,0.406822,-29.942356,-26.235273
1968.60,0.077943,0.569166,-0.108660,0.122138,-0.007470,-0.071344,0.065589,-0.538930,-0.839793,0.004693,0.007787,0.016688,0.406822,-29.942356,-26.235273
1968.61,0.077941,0.570065,-0.109758,0.081449,-0.068644,-0.082873,0.065549,-0.539687,-0.839310,-0.001630,0.005187,0.035416,0.491514,-30.036545,-26.125929
1968.62,0.078040,0.571140,-0.111080,0.045681,-0.071903,-0.091862,0.065587,-0.540592,-0.838725,0.005031,-0.002224,0.038691,0.491514,-30.036545,-26.125929
1968.63,0.078023,0.571402,-0.112198,0.028365,-0.053684,-0.084627,0.065562,-0.540812,-0.838585,0.011189,-0.011847,0.040626,0.526140,-30.096687,-26.055946
1968.64,0.078290,0.571507,-0.113186,0.011044,-0.013726,-0.077382,0.065781,-0.540900,-0.838511,0.010284,-0.007608,0.045908,0.526140,-30.096687,-26.055946
1968.65,0.079135,0.571433,-0.114082,-0.006286,0.049172,-0.068895,0.066493,-0.540838,-0.838494,0.014866,-0.001704,0.038537,0.552483,-30.134483,-26.011681
1968.66,0.081272,0.571620,-0.115292,-0.022396,0.086662,-0.054244,0.068276,-0.540995,-0.838250,0.026008,-0.005010,0.025811,0.552483,-30.134483,-26.011681
1968.67,0.082263,0.571296,-0.115675,-0.028673,0.064791,-0.024721,0.069121,-0.540722,-0.838356,0.032746,-0.011112,0.013833,0.602437,-30.137621,-26.006935
1968.68,0.082620,0.571044,-0.115744,-0.020097,0.017483,-0.003694,0.069433,-0.540511,-0.838467,0.028163,-0.010454,0.008114,0.602437,-30.137621,-26.006935
1968.69,0.082554,0.570950,-0.115624,-0.006570,-0.002058,0.012462,0.069381,-0.540431,-0.838523,0.022416,-0.006459,0.013770,0.701946,-30.135990,-26.006330
1968.70,0.083106,0.571301,-0.115654,-0.016477,0.025761,0.019773,0.069828,-0.540727,-0.838295,0.013775,-0.005981,0.024864,0.701946,-30.135990,-26.006330
1968.71,0.083669,0.570950,-0.115441,-0.042380,0.077980,0.009674,0.070316,-0.540431,-0.838445,0.002651,-0.004216,0.032750,0.709809,-30.126945,-26.016594
1968.72,0.084714,0.571052,-0.115404,-0.068238,0.116974,-0.010294,0.071187,-0.540518,-0.838315,-0.005926,0.006353,0.033720,0.736793,-30.126720,-26.016102
1968.73,0.086233,0.570167,-0.115525,-0.102801,0.131782,-0.013097,0.072502,-0.539773,-0.838683,0.000252,0.013833,0.030913,0.736793,-30.126720,-26.016102
1968.74,0.087700,0.568963,-0.115561,-0.129996,0.119878,-0.003507,0.073789,-0.538759,-0.839222,0.003283,0.006944,0.020603,0.806440,-30.106476,-26.037468
1968.75,0.088652,0.567531,-0.115324,-0.130069,0.083507,0.018671,0.074656,-0.537551,-0.839920,0.004308,0.002166,0.001663,0.806440,-30.106476,-26.037468
1968.76,0.089034,0.565996,-0.114825,-0.102945,0.059048,0.030027,0.075050,-0.536257,-0.840712,-0.000435,0.009676,-0.012926,0.874197,-30.037550,-26.114771
1968.78,0.089209,0.564622,-0.114327,-0.064651,0.049094,0.024238,0.075263,-0.535097,-0.841431,-0.004126,0.016481,-0.021850,0.874197,-30.037550,-26.114771
1968.79,0.089413,0.564345,-0.114112,-0.015210,0.024598,0.011154,0.075448,-0.534863,-0.841564,-0.011071,0.020611,-0.018193,0.885353,-29.960335,-26.202944
1968.80,0.089589,0.564415,-0.114101,0.010769,0.017213,-0.002155,0.075593,-0.534921,-0.841514,-0.020204,0.016168,-0.005914,0.885353,-29.960335,-26.202944
1968.81,0.090109,0.564448,-0.114404,-0.000240,0.044064,-0.031847,0.076029,-0.534949,-0.841456,-0.022593,0.012046,0.008372,0.893357,-29.954613,-26.209215
1968.82,0.090796,0.564228,-0.114841,-0.038403,0.080825,-0.064268,0.076617,-0.534764,-0.841521,-0.017794,0.003712,0.015776,0.893357,-29.954613,-26.209215
1968.83,0.092386,0.563440,-0.115833,-0.072880,0.107864,-0.091726,0.077994,-0.534098,-0.841817,-0.010657,0.002497,0.023977,0.933752,-29.950642,-26.212341
1968.84,0.094312,0.562573,-0.116986,-0.070392,0.127205,-0.097858,0.079659,-0.533364,-0.842126,0.005546,0.004266,0.033395,0.933752,-29.950642,-26.212341
1968.85,0.096449,0.562105,-0.118154,-0.050660,0.135451,-0.091493,0.081483,-0.532969,-0.842202,0.000381,0.009959,0.033731,1.054576,-29.909853,-26.254303
1968.86,0.098647,0.561738,-0.119172,-0.027251,0.153288,-0.078922,0.083352,-0.532658,-0.842216,-0.000650,0.015201,0.029671,1.054576,-29.909853,-26.254303
1968.87,0.100971,0.561301,-0.120146,-0.022350,0.155600,-0.069009,0.085333,-0.532288,-0.842252,0.003778,0.017792,0.021573,1.054576,-29.909853,-26.254303
1968.88,0.102975,0.560802,-0.120964,-0.033480,0.133919,-0.062964,0.087048,-0.531865,-0.842343,0.001514,0.017263,0.017697,1.195261,-29.890533,-26.270271
1968.89,0.104775,0.560188,-0.121704,-0.076698,0.122200,-0.060932,0.088599,-0.531345,-0.842510,0.001825,0.007404,0.022639,1.195261,-29.890533,-26.270271
1968.90,0.106414,0.559236,-0.122348,-0.127313,0.110560,-0.061440,0.090033,-0.530539,-0.842866,0.001245,-0.004526,0.020936,1.331848,-29.868053,-26.289263
1968.91,0.107913,0.557790,-0.123054,-0.171722,0.091674,-0.070521,0.091379,-0.529313,-0.843492,0.002509,-0.012710,0.011659,1.331848,-29.868053,-26.289263
1968.92,0.109458,0.556168,-0.123683,-0.177945,0.103721,-0.057013,0.092775,-0.527935,-0.844202,0.006804,-0.020344,-0.000357,1.442689,-29.828457,-26.328342
1968.93,0.110747,0.554399,-0.123974,-0.158259,0.107058,-0.038320,0.093967,-0.526432,-0.845009,0.008038,-0.023235,-0.013710,1.442689,-29.828457,-26.328342
1968.95,0.111874,0.552971,-0.124132,-0.121276,0.094561,-0.021928,0.095002,-0.525217,-0.845648,0.008117,-0.017629,-0.027643,1.547718,-29.749058,-26.412083
1968.96,0.112690,0.551693,-0.124114,-0.076863,0.091707,-0.012856,0.095768,-0.524130,-0.846237,-0.002064,-0.005213,-0.037003,1.547718,-29.749058,-26.412083
1968.97,0.113919,0.551200,-0.124267,-0.034863,0.115546,-0.019827,0.096838,-0.523710,-0.846375,-0.002142,-0.002230,-0.034332,1.627136,-29.664951,-26.501755
1968.98,0.115357,0.551092,-0.124529,-0.000285,0.121302,-0.021948,0.098061,-0.523618,-0.846291,0.004494,-0.005190,-0.027321,1.627136,-29.664951,-26.501755
1968.99,0.116486,0.551222,-0.124782,0.020689,0.083642,-0.015590,0.099008,-0.523729,-0.846112,0.006796,-0.001448,-0.019916,1.688823,-29.618107,-26.550243
1969.00,0.117302,0.551423,-0.125013,0.042878,0.050772,-0.004287,0.099687,-0.523899,-0.845927,0.005843,-0.000179,-0.015371,1.762616,-29.619286,-26.544132
1969.01,0.117873,0.552127,-0.125115,0.076200,0.050462,-0.000257,0.100126,-0.524500,-0.845503,0.000857,0.003854,-0.013903,1.762616,-29.619286,-26.544132
1969.02,0.118724,0.553249,-0.125271,0.118167,0.079078,0.001405,0.100776,-0.525454,-0.844833,-0.006705,0.003970,-0.016053,1.799992,-29.643692,-26.514359
1969.03,0.119545,0.554836,-0.125318,0.158836,0.067725,0.022766,0.101370,-0.526804,-0.843921,0.001093,-0.001898,-0.000638,1.799992,-29.643692,-26.514359
1969.04,0.119820,0.557198,-0.125107,0.187115,-0.001591,0.060009,0.101453,-0.528810,-0.842655,0.007190,-0.006483,0.016620,1.837023,-29.715698,-26.431089
1969.05,0.118839,0.559362,-0.124392,0.198147,-0.070691,0.085983,0.100490,-0.530645,-0.841616,0.010105,-0.002787,0.034228,1.837023,-29.715698,-26.431089
1969.06,0.117679,0.561764,-0.123720,0.227814,-0.069677,0.076413,0.099364,-0.532680,-0.840464,0.005113,0.001003,0.037088,1.792044,-29.834112,-26.300459
1969.07,0.117088,0.564896,-0.123177,0.289600,0.021701,0.057339,0.098672,-0.535328,-0.838861,-0.012276,0.001347,0.011880,1.792044,-29.834112,-26.300459
1969.08,0.118081,0.568521,-0.123007,0.356260,0.129846,0.054349,0.099275,-0.538386,-0.836830,-0.010851,-0.002248,-0.017113,1.713097,-29.977987,-26.141640
1969.09,0.120010,0.572926,-0.122889,0.427835,0.202870,0.060025,0.100605,-0.542093,-0.834274,0.004543,-0.003165,-0.038772,1.713097,-29.977987,-26.141640
1969.10,0.122107,0.577839,-0.122770,0.464848,0.197673,0.067788,0.102029,-0.546215,-0.831408,0.029060,0.005627,-0.030103,1.757353,-30.186760,-25.897314
1969.11,0.124320,0.582604,-0.122833,0.431483,0.150792,0.078532,0.103544,-0.550201,-0.828588,0.025148,-0.006059,-0.010569,1.757353,-30.186760,-25.897314
1969.13,0.124491,0.586586,-0.122369,0.343832,-0.012751,0.084988,0.103413,-0.553521,-0.826390,0.018520,-0.014564,0.020116,1.831959,-30.436165,-25.598511
1969.14,0.122041,0.589433,-0.121706,0.232767,-0.252133,0.083780,0.101196,-0.555890,-0.825073,0.009812,-0.004154,0.049957,1.831959,-30.436165,-25.598511
1969.15,0.118052,0.591102,-0.121191,0.127971,-0.366963,0.049395,0.097794,-0.557276,-0.824548,0.009262,0.014353,0.063836,1.831959,-30.436165,-25.598511
1969.16,0.114945,0.592410,-0.121517,0.077600,-0.311735,-0.021367,0.095149,-0.558362,-0.824123,0.009359,0.018475,0.057659,1.735690,-30.609175,-25.398140
1969.17,0.113379,0.593024,-0.122901,0.073024,-0.191462,-0.127405,0.093818,-0.558871,-0.823930,0.006615,0.011218,0.041765,1.735690,-30.609175,-25.398140
1969.18,0.113830,0.593739,-0.125638,0.104252,-0.065458,-0.233085,0.094144,-0.559464,-0.823491,0.007052,0.013123,0.022145,1.542851,-30.684502,-25.319574
1969.19,0.116255,0.594921,-0.129913,0.165145,0.010810,-0.344658,0.096065,-0.560443,-0.822603,-0.014369,0.010028,-0.003295,1.542851,-30.684502,-25.319574
1969.20,0.119353,0.596028,-0.135566,0.235862,-0.026657,-0.436455,0.098539,-0.561360,-0.821684,0.004092,0.044362,0.009642,1.555936,-30.722752,-25.272345
1969.21,0.122237,0.598423,-0.141886,0.297690,-0.070522,-0.459290,0.100744,-0.563340,-0.820060,0.005442,0.035127,0.040061,1.555936,-30.722752,-25.272345
1969.22,0.125116,0.601357,-0.147968,0.343251,-0.038500,-0.427996,0.102898,-0.565762,-0.818123,0.002281,0.033581,0.069497,1.797900,-30.790977,-25.173063
1969.23,0.128730,0.604612,-0.153666,0.362834,0.061317,-0.387065,0.105617,-0.568443,-0.815915,-0.002834,0.030815,0.099240,1.797900,-30.790977,-25.173063
1969.24,0.133809,0.608467,-0.158362,0.367401,0.303483,-0.299362,0.109466,-0.571610,-0.813191,-0.018341,0.021180,0.092137,2.060955,-30.936537,-24.973646
1969.25,0.142079,0.611840,-0.162771,0.356230,0.613984,-0.301801,0.115914,-0.574375,-0.810344,-0.028908,0.028720,0.065761,2.060955,-30.936537,-24.973646
1969.26,0.152380,0.614565,-0.167826,0.293474,0.704294,-0.365272,0.124017,-0.576603,-0.807557,-0.038736,0.029484,0.043199,2.364662,-31.122391,-24.714470
1969.27,0.162532,0.616217,-0.173529,0.196156,0.618518,-0.420532,0.132054,-0.577952,-0.805316,-0.035558,0.022334,0.034075,2.899837,-31.280067,-24.457067
1969.28,0.171178,0.616502,-0.179205,0.062870,0.471155,-0.428085,0.138984,-0.578185,-0.803981,-0.034370,0.024260,0.046169,2.899837,-31.280067,-24.457067
1969.30,0.178182,0.614904,-0.184518,-0.129704,0.339965,-0.430055,0.144775,-0.576880,-0.803896,-0.029007,0.033057,0.079394,3.475314,-31.334934,-24.311398
1969.31,0.183898,0.611000,-0.189604,-0.344392,0.241777,-0.464290,0.149778,-0.573687,-0.805264,-0.022520,0.040408,0.102932,3.475314,-31.334934,-24.311398
1969.32,0.189296,0.604893,-0.195062,-0.534234,0.210087,-0.543873,0.154780,-0.568674,-0.807870,-0.007258,0.052911,0.096780,3.931307,-31.205006,-24.408857
1969.33,0.195104,0.596693,-0.201046,-0.716687,0.244752,-0.622120,0.160368,-0.561910,-0.811504,0.012225,0.036321,0.100353,3.931307,-31.205006,-24.408857
1969.34,0.202599,0.586683,-0.207312,-0.860978,0.433546,-0.678958,0.167569,-0.553602,-0.815749,0.031025,0.023099,0.097655,4.417744,-30.853256,-24.770140
1969.35,0.213282,0.575387,-0.214012,-0.952132,0.737949,-0.754946,0.177586,-0.544159,-0.819972,0.037502,0.022873,0.092326,4.417744,-30.853256,-24.770140
1969.36,0.227212,0.563400,-0.221230,-0.980330,1.009169,-0.825392,0.190447,-0.534064,-0.823715,0.044584,0.026129,0.076400,5.148926,-30.314590,-25.288616
1969.37,0.244129,0.551617,-0.229460,-0.902236,1.236171,-0.923163,0.205860,-0.524065,-0.826424,0.063015,0.038012,0.059167,5.148926,-30.314590,-25.288616
1969.38,0.263209,0.540983,-0.238891,-0.730340,1.358406,-1.005253,0.223028,-0.514978,-0.827681,0.065257,0.033915,0.037199,6.269156,-29.695751,-25.765478
1969.39,0.282684,0.532455,-0.248781,-0.499583,1.350166,-0.969673,0.240320,-0.507650,-0.827368,0.072638,0.012716,0.036642,6.269156,-29.695751,-25.765478
1969.40,0.301674,0.526532,-0.258358,-0.244272,1.336644,-0.895625,0.256876,-0.502538,-0.825512,0.099814,0.036031,0.052273,17.423096,-34.194946,-30.110888
1969.41,0.320934,0.523347,-0.268667,0.045849,1.319609,-0.886587,0.273230,-0.499782,-0.821927,0.167627,0.074520,0.026883,17.423096,-34.194946,-30.110888
1969.42,0.338762,0.523500,-0.278393,0.346359,1.174383,-0.672809,0.287814,-0.499914,-0.816853,0.285810,0.001150,-0.036846,18.916925,-33.740288,-29.719812
1969.43,0.352017,0.528493,-0.284205,0.693800,0.911972,-0.142887,0.297751,-0.504232,-0.810613,0.442132,-0.067240,-0.042002,18.916925,-33.740288,-29.719812
1969.44,0.361049,0.538870,-0.285161,1.025226,0.797070,0.391814,0.303195,-0.513167,-0.802952,0.425305,0.051985,0.069310,18.916925,-33.740288,-29.719812
1969.45,0.370348,0.553854,-0.283739,1.369878,1.025483,0.666617,0.307831,-0.525969,-0.792841,0.335540,0.112257,0.171671,19.971006,-33.799335,-28.953209
1969.47,0.385207,0.572443,-0.282171,1.637264,1.665027,0.775601,0.315849,-0.541687,-0.778983,0.191262,0.122711,0.265815,19.971006,-33.799335,-28.953209
1969.48,0.411723,0.592095,-0.282230,1.711486,2.800339,0.669562,0.332066,-0.558101,-0.760431,0.014491,0.226710,0.324945,20.178181,-34.655739,-27.773106
1969.49,0.450602,0.607283,-0.285644,1.246221,3.616295,0.227558,0.357640,-0.570638,-0.739233,-0.438984,0.513326,0.347754,20.178181,-34.655739,-27.773106
1969.50,0.488116,0.610808,-0.289910,0.162712,3.103063,-0.226105,0.384167,-0.573529,-0.723519,-0.737515,0.359754,0.364373,20.750175,-35.910412,-25.678722
1969.51,0.514094,0.606553,-0.288340,-0.541694,2.408461,-0.011448,0.404027,-0.570039,-0.715414,-0.265798,-0.041259,0.327566,20.750175,-35.910412,-25.678722
1969.52,0.535636,0.601385,-0.284926,-0.498190,2.134325,-0.074025,0.420842,-0.565785,-0.709070,-0.080769,-0.103298,0.291055,22.431213,-36.444546,-23.412815
1969.53,0.558327,0.597677,-0.288292,-0.053285,1.933995,-0.512378,0.437930,-0.562724,-0.701113,-0.108584,0.035716,0.268221,22.431213,-36.444546,-23.412815
1969.54,0.584786,0.593467,-0.296093,-0.043708,2.152991,-0.779767,0.457630,-0.559238,-0.691251,-0.178485,-0.104412,0.230603,23.628576,-36.185143,-22.624107
1969.55,0.612580,0.585652,-0.303392,-0.381493,2.219600,-0.924895,0.479161,-0.552743,-0.681821,-0.199925,0.055719,0.180661,23.628576,-36.185143,-22.624107
1969.56,0.636573,0.572495,-0.309145,-0.865775,1.860500,-1.161683,0.499660,-0.541731,-0.675920,-0.156826,0.329817,0.175554,25.011009,-35.852631,-21.646307
1969.57,0.654734,0.553555,-0.313582,-1.325294,1.367197,-1.409382,0.518008,-0.525715,-0.674753,-0.074802,0.308918,0.158411,26.702841,-35.078163,-20.880733
1969.58,0.667081,0.530408,-0.315569,-1.713890,0.984469,-1.476296,0.533687,-0.505885,-0.677686,-0.053371,0.159068,0.113950,26.702841,-35.078163,-20.880733
1969.59,0.675900,0.503949,-0.315035,-2.067993,0.828451,-1.535369,0.547827,-0.482888,-0.683159,-0.039083,0.128182,0.054985,28.300234,-33.622345,-21.169765
1969.60,0.682334,0.477693,-0.313146,-1.946335,0.625861,-1.366551,0.560015,-0.459731,-0.689224,0.094496,0.118560,-0.247909,28.300234,-33.622345,-21.169765
1969.61,0.688233,0.457011,-0.312655,-1.385275,0.616194,-1.169856,0.569989,-0.441268,-0.693106,0.100543,0.102248,-0.406672,29.678596,-31.796381,-22.083830
1969.62,0.700098,0.442186,-0.316922,-0.661766,1.063041,-1.192071,0.582323,-0.427917,-0.691221,-0.015337,0.055175,-0.417955,29.678596,-31.796381,-22.083830
1969.63,0.720828,0.431211,-0.326359,-0.130583,1.750039,-1.306103,0.599590,-0.417971,-0.682490,-0.138668,0.009402,-0.183828,30.822260,-30.472370,-22.381849
1969.65,0.748976,0.423605,-0.340201,0.370907,2.220921,-1.390933,0.620707,-0.411049,-0.667653,-0.087977,-0.053443,-0.117472,30.822260,-30.472370,-22.381849
1969.66,0.782917,0.417008,-0.357085,0.605807,2.667680,-1.501847,0.644905,-0.405026,-0.648114,-0.035469,0.041928,-0.050464,32.518635,-29.582994,-21.140226
1969.67,0.821279,0.410411,-0.375263,0.714556,2.990711,-1.547482,0.671229,-0.398986,-0.624710,0.097295,0.112197,-0.010437,32.518635,-29.582994,-21.140226
1969.68,0.860873,0.402910,-0.393410,0.683815,3.063682,-1.585980,0.697681,-0.392097,-0.599584,0.088024,0.005180,0.000921,34.613464,-28.774666,-18.800291
1969.69,0.899509,0.393841,-0.409806,0.500942,3.025141,-1.545887,0.723075,-0.383738,-0.574376,0.158806,-0.104360,-0.037304,34.613464,-28.774666,-18.800291
1969.70,0.933770,0.384211,-0.422634,0.281759,2.658621,-1.348464,0.745262,-0.374828,-0.551443,0.161004,-0.202686,-0.065211,36.686192,-27.819344,-16.116196
1969.71,0.961354,0.374402,-0.431523,0.018198,2.177826,-1.163864,0.763165,-0.365716,-0.532757,0.149341,-0.184043,-0.080219,36.686192,-27.819344,-16.116196
1969.72,0.983287,0.363332,-0.436139,-0.352442,1.824182,-1.078917,0.777988,-0.355390,-0.518105,0.125256,-0.068712,-0.097633,36.686192,-27.819344,-16.116196
1969.73,1.001259,0.350619,-0.437193,-0.635248,1.602980,-1.048528,0.790915,-0.343479,-0.506435,0.094980,0.002475,-0.133747,38.249790,-26.852375,-13.979541
1969.74,1.015147,0.336704,-0.436305,-0.804202,1.231432,-1.079964,0.801854,-0.330378,-0.497875,0.036204,-0.057790,-0.200825,38.249790,-26.852375,-13.979541
1969.75,1.024181,0.321587,-0.434388,-0.910100,0.816001,-1.132989,0.810494,-0.316073,-0.493151,0.014778,-0.084730,-0.236280,39.354927,-25.852905,-12.741333
1969.76,1.029993,0.306256,-0.432608,-0.865478,0.539238,-1.163496,0.817405,-0.301491,-0.490870,-0.022177,-0.099876,-0.246603,39.354927,-25.852905,-12.741333
1969.77,1.034670,0.290998,-0.431890,-0.760311,0.451722,-1.217980,0.823551,-0.286908,-0.489334,-0.017978,-0.120791,-0.255508,40.239979,-24.708424,-12.237740
1969.78,1.040216,0.276030,-0.433370,-0.539032,0.505866,-1.294677,0.829863,-0.272539,-0.486878,-0.009688,-0.128813,-0.286422,40.239979,-24.708424,-12.237740
1969.79,1.046797,0.263031,-0.437265,-0.236860,0.516008,-1.206590,0.836046,-0.260009,-0.483138,0.090025,-0.124894,-0.294084,40.979477,-23.475906,-12.210181
1969.80,1.053794,0.252699,-0.442686,-0.000367,0.537176,-1.053795,0.841697,-0.250018,-0.478579,0.096474,0.007159,-0.249525,40.979477,-23.475906,-12.210181
1969.82,1.061037,0.244181,-0.449533,0.199464,0.514602,-1.001265,0.846969,-0.241762,-0.473492,0.015687,0.092317,-0.167896,41.719936,-22.252899,-11.990821
1969.83,1.068932,0.236094,-0.458033,0.344119,0.583775,-1.058987,0.852367,-0.233907,-0.467716,-0.037120,0.074163,-0.072674,41.719936,-22.252899,-11.990821
1969.84,1.078575,0.228300,-0.467059,0.372352,0.752398,-1.024105,0.858418,-0.226322,-0.460323,-0.010563,0.030689,-0.014638,42.336052,-21.329292,-11.499740
1969.85,1.088157,0.220908,-0.474253,0.203931,0.725188,-0.885216,0.864248,-0.219116,-0.452840,0.090998,0.043152,-0.001979,42.336052,-21.329292,-11.499740
1969.86,1.095157,0.214030,-0.478309,-0.027579,0.512251,-0.702645,0.868716,-0.212399,-0.447459,0.104246,0.068784,0.022410,42.947842,-20.467804,-10.773865
1969.87,1.097528,0.206624,-0.479359,-0.302919,0.088108,-0.675972,0.871151,-0.205157,-0.446102,0.019322,0.082385,0.038052,43.451740,-19.733593,-10.102283
1969.88,1.095272,0.196713,-0.478520,-0.556577,-0.272209,-0.841417,0.871907,-0.195447,-0.448976,-0.056797,0.144345,0.102906,43.451740,-19.733593,-10.102283
1969.89,1.090548,0.183691,-0.476318,-0.812590,-0.436579,-1.049957,0.871960,-0.182660,-0.454227,-0.149898,0.140057,0.160617,43.752300,-18.979383,-10.249065
1969.90,1.085769,0.168127,-0.472709,-1.022118,-0.366494,-1.154353,0.872188,-0.167336,-0.459658,0.047993,-0.090186,0.140612,43.752300,-18.979383,-10.249065
1969.91,1.081639,0.153251,-0.467060,-1.150212,-0.293276,-0.907740,0.872384,-0.152652,-0.464375,0.300819,-0.195401,0.014958,44.080284,-17.788120,-10.956077
1969.92,1.075922,0.142393,-0.458033,-1.248501,-0.483106,-0.356374,0.871122,-0.141913,-0.470115,0.458911,-0.202494,-0.113336,44.080284,-17.788120,-10.956077
1969.93,1.065053,0.136475,-0.445184,-1.344351,-1.008887,0.223228,0.866680,-0.136052,-0.479953,0.451313,-0.188945,-0.212430,44.269089,-16.804050,-11.721601
1969.94,1.047221,0.133577,-0.429703,-1.400872,-1.635895,0.522030,0.858322,-0.133180,-0.495526,0.278839,-0.134658,-0.202015,44.269089,-16.804050,-11.721601
1969.95,1.024090,0.130619,-0.414149,-1.388251,-2.077734,0.473869,0.846965,-0.130248,-0.515448,0.091039,-0.110460,-0.138056,43.858543,-16.707394,-13.297203
1969.96,0.999398,0.126207,-0.399776,-1.346930,-2.153216,0.321342,0.834456,-0.125872,-0.536507,0.006014,-0.145017,-0.095390,43.858543,-16.707394,-13.297203
1969.97,0.975723,0.120644,-0.386642,-1.307073,-2.050265,0.220670,0.822088,-0.120352,-0.556495,0.028696,-0.191508,-0.094216,43.068512,-16.682384,-15.694760
1969.98,0.952842,0.115424,-0.373311,-1.308847,-2.004056,0.364945,0.809642,-0.115168,-0.575514,0.156743,-0.275946,-0.106279,43.068512,-16.682384,-15.694760
1970.00,0.929330,0.112979,-0.357552,-1.332682,-2.070647,0.807359,0.796111,-0.112739,-0.594556,0.320405,-0.330941,-0.107180,42.241722,-16.460688,-18.005739
1970.01,0.904071,0.114458,-0.338146,-1.371681,-2.217448,1.349467,0.780709,-0.114208,-0.614369,0.387168,-0.323902,-0.107463,42.241722,-16.460688,-18.005739
1970.02,0.875321,0.118657,-0.315134,-1.440986,-2.566002,1.750613,0.762351,-0.118378,-0.636245,0.227365,-0.149215,-0.173584,42.241722,-16.460688,-18.005739
1970.03,0.842071,0.123393,-0.290011,-1.490800,-2.922725,1.888067,0.740351,-0.123080,-0.660856,0.050130,-0.057432,-0.201799,41.048950,-16.752689,-20.343430
1970.04,0.805775,0.126569,-0.265633,-1.467861,-3.189916,1.709378,0.715597,-0.126232,-0.687013,-0.085485,0.020259,-0.161040,41.048950,-16.752689,-20.343430
1970.05,0.768150,0.127044,-0.243609,-1.400069,-3.285234,1.410368,0.689207,-0.126702,-0.713401,-0.143964,0.023949,-0.179940,39.179852,-17.588181,-23.132652
1970.06,0.731098,0.126806,-0.225056,-1.116593,-3.269491,1.209729,0.662327,-0.126467,-0.738464,-0.129520,0.008272,-0.235657,39.179852,-17.588181,-23.132652
1970.07,0.693132,0.128131,-0.211092,-0.561560,-3.061690,1.016810,0.633712,-0.127781,-0.762943,-0.075484,0.013279,-0.059704,36.878826,-18.144678,-26.272556
1970.08,0.666251,0.134085,-0.202510,0.080446,-2.214254,0.974235,0.612496,-0.133684,-0.779088,-0.016503,0.023470,0.003712,36.878826,-18.144678,-26.272556
1970.09,0.648061,0.142834,-0.196012,0.316059,-1.457887,0.986774,0.597495,-0.142349,-0.789137,-0.021613,0.060607,0.088575,34.459564,-18.453222,-29.181185
1970.10,0.635036,0.151923,-0.189523,0.318370,-1.067931,1.006699,0.586374,-0.151339,-0.795778,-0.016443,0.075274,0.094407,34.459564,-18.453222,-29.181185
1970.11,0.622557,0.160513,-0.182105,0.215775,-1.097457,1.040194,0.575619,-0.159824,-0.801947,0.022236,0.087253,0.043555,32.780613,-19.220911,-30.586143
1970.12,0.607131,0.167662,-0.173349,0.031804,-1.401560,1.059196,0.562513,-0.166878,-0.809772,0.044207,0.065132,-0.001675,31.633480,-20.102879,-31.220531
1970.13,0.588156,0.172709,-0.163015,-0.207657,-1.690567,1.057924,0.546574,-0.171851,-0.819588,0.017284,0.009330,0.032036,31.633480,-20.102879,-31.220531
1970.14,0.566608,0.175276,-0.151402,-0.437148,-1.886470,1.025966,0.528549,-0.174379,-0.830800,-0.030502,0.009127,0.045628,30.184633,-20.774281,-32.200024
1970.15,0.543907,0.176122,-0.138974,-0.561859,-1.932535,1.030873,0.509478,-0.175213,-0.842456,0.020841,0.060757,-0.010937,30.184633,-20.774281,-32.200024
1970.17,0.521153,0.176617,-0.126459,-0.528467,-1.923060,1.015179,0.490135,-0.175701,-0.853755,0.019035,0.016246,-0.008062,28.409575,-21.090609,-33.579849
1970.18,0.499507,0.177858,-0.115361,-0.345430,-1.847993,0.928246,0.471437,-0.176922,-0.863971,-0.017000,0.014492,-0.027554,28.409575,-21.090609,-33.579849
1970.19,0.479649,0.180662,-0.107016,-0.050996,-1.670708,0.759848,0.453957,-0.179681,-0.872719,-0.058846,0.040490,0.032951,26.585690,-21.323452,-34.900368
1970.20,0.464009,0.185561,-0.102267,0.300340,-1.285920,0.550181,0.439854,-0.184498,-0.878913,-0.080418,-0.010555,0.054664,26.585690,-21.323452,-34.900368
1970.21,0.453829,0.193293,-0.100372,0.665982,-0.803058,0.473873,0.430246,-0.192091,-0.882037,-0.049814,-0.027513,0.006747,25.092737,-21.741001,-35.738041
1970.22,0.448497,0.203768,-0.099573,0.901617,-0.415153,0.502279,0.424641,-0.202361,-0.882457,-0.017735,-0.031709,-0.058949,25.092737,-21.741001,-35.738041
1970.23,0.444747,0.214370,-0.099273,0.859882,-0.324970,0.430386,0.420382,-0.212732,-0.882057,-0.052614,0.051599,0.025780,24.326578,-22.540661,-35.772343
1970.24,0.441159,0.222615,-0.098830,0.616896,-0.353879,0.365074,0.416451,-0.220781,-0.881943,-0.082131,0.118212,0.084824,24.326578,-22.540661,-35.772343
1970.25,0.435221,0.227291,-0.095940,0.164770,-0.566668,0.440642,0.410767,-0.225339,-0.883455,-0.009126,0.188642,0.105638,23.869314,-23.347574,-35.562214
1970.26,0.424642,0.227867,-0.090848,-0.229044,-0.993327,0.452575,0.401344,-0.225900,-0.887633,-0.003304,0.025140,0.061125,23.869314,-23.347574,-35.562214
1970.27,0.410409,0.226397,-0.084351,-0.402034,-1.260294,0.504995,0.388803,-0.224468,-0.893558,0.038321,-0.005543,0.047062,23.125425,-23.619001,-35.873135
1970.28,0.394629,0.224384,-0.077312,-0.421813,-1.351990,0.517089,0.374828,-0.222506,-0.899997,0.019597,-0.000577,0.061908,23.125425,-23.619001,-35.873135
1970.29,0.379286,0.222963,-0.071514,-0.284381,-1.300559,0.409964,0.361092,-0.221121,-0.905935,-0.047707,-0.012491,0.076223,23.125425,-23.619001,-35.873135
1970.30,0.366862,0.223034,-0.068142,-0.041865,-1.017824,0.252195,0.349804,-0.221190,-0.910336,-0.092510,0.016417,0.116086,21.894003,-23.553658,-36.679726
1970.31,0.359222,0.224805,-0.067045,0.160991,-0.585187,0.126159,0.342700,-0.222916,-0.912614,-0.097049,0.082489,0.158220,21.894003,-23.553658,-36.679726
1970.32,0.357321,0.227495,-0.067665,0.289753,-0.057700,-0.001804,0.340754,-0.225538,-0.912699,-0.083659,0.105253,0.158610,20.757948,-23.550640,-37.336296
1970.34,0.360807,0.231048,-0.070539,0.447071,0.363492,-0.166523,0.343648,-0.228998,-0.910750,-0.055715,0.097070,0.109313,20.757948,-23.550640,-37.336296
1970.35,0.368313,0.235600,-0.074881,0.569454,0.690122,-0.226818,0.350096,-0.233427,-0.907163,-0.002806,0.058256,0.070264,20.357574,-23.741871,-37.435505
1970.36,0.378545,0.240663,-0.079360,0.591512,0.908331,-0.194441,0.358918,-0.238347,-0.902424,0.021286,0.019078,0.033405,20.357574,-23.741871,-37.435505
1970.37,0.389331,0.245207,-0.082592,0.473857,0.937719,-0.098182,0.368216,-0.242757,-0.897489,0.070123,0.072927,0.012799,20.793207,-24.040760,-37.002819
1970.38,0.398469,0.249056,-0.085601,0.448055,0.740012,-0.120721,0.376036,-0.246489,-0.893219,0.017595,-0.017625,-0.016083,20.793207,-24.040760,-37.002819
1970.39,0.406655,0.253355,-0.089259,0.517337,0.688914,-0.155815,0.382912,-0.250653,-0.889129,0.031684,0.030331,0.045303,21.578899,-24.397350,-36.313148
1970.40,0.415933,0.257714,-0.092572,0.475055,0.838573,-0.082183,0.390700,-0.254871,-0.884531,0.066163,0.039661,0.046091,21.578899,-24.397350,-36.313148
1970.41,0.425937,0.260990,-0.093922,0.283289,0.913248,0.019526,0.399182,-0.258037,-0.879813,-0.024304,-0.008275,0.056159,22.212318,-24.696817,-35.724003
1970.42,0.434737,0.262607,-0.095315,0.178712,0.746841,-0.071601,0.406732,-0.259599,-0.875886,-0.063074,-0.046950,-0.009245,22.878883,-24.985294,-35.097237
1970.43,0.441768,0.264117,-0.097185,0.214680,0.580080,-0.105844,0.412713,-0.261057,-0.872650,-0.009713,0.029474,-0.004303,22.878883,-24.985294,-35.097237
1970.44,0.448089,0.266028,-0.100857,0.344962,0.491862,-0.274757,0.418004,-0.262901,-0.869572,-0.054051,0.099907,0.059727,23.440094,-25.094654,-34.645988
1970.45,0.456371,0.268657,-0.107062,0.503426,0.706367,-0.423479,0.424885,-0.265437,-0.865457,-0.060001,0.095988,0.144815,23.440094,-25.094654,-34.645988
1970.46,0.470451,0.271943,-0.114616,0.606052,1.278424,-0.497426,0.436630,-0.268604,-0.858607,-0.066482,0.090229,0.228190,24.019363,-25.220737,-34.154194
1970.47,0.490153,0.275233,-0.122455,0.588520,1.781971,-0.460384,0.453042,-0.271771,-0.849054,-0.085992,-0.005451,0.223444,24.019363,-25.220737,-34.154194
1970.48,0.513971,0.278380,-0.128333,0.490248,2.158516,-0.283627,0.472712,-0.274799,-0.837275,0.078344,-0.016202,0.131479,25.274639,-25.393446,-33.104229
1970.49,0.536970,0.280417,-0.132730,0.319772,1.979801,-0.248405,0.491554,-0.276757,-0.825700,0.049111,0.024071,0.002824,25.274639,-25.393446,-33.104229
1970.50,0.555810,0.280881,-0.136725,0.200305,1.572964,-0.305260,0.506954,-0.277203,-0.816184,0.016697,0.029110,0.007850,26.855286,-25.539253,-31.718521
1970.52,0.571428,0.280141,-0.140772,0.115345,1.310705,-0.353077,0.519750,-0.276491,-0.808340,0.034999,-0.014677,0.037984,26.855286,-25.539253,-31.718521
1970.53,0.584922,0.278738,-0.143315,-0.024633,1.177007,-0.220119,0.530824,-0.275142,-0.801575,0.098464,-0.096531,-0.001968,28.033283,-25.474550,-30.736080
1970.54,0.595884,0.276817,-0.142838,-0.225323,0.987889,-0.026133,0.539874,-0.273295,-0.796144,0.122388,-0.047994,-0.050032,28.033283,-25.474550,-30.736080
1970.55,0.603272,0.273695,-0.141655,-0.316314,0.634103,-0.107344,0.546223,-0.270291,-0.792833,0.052211,-0.008899,-0.053374,28.848566,-25.324247,-30.099285
1970.56,0.607515,0.270233,-0.140992,-0.292726,0.351405,-0.125731,0.550113,-0.266956,-0.791271,0.006024,-0.058484,-0.065433,28.848566,-25.324247,-30.099285
1970.57,0.609385,0.267147,-0.139699,-0.316407,0.192952,-0.055750,0.552061,-0.263981,-0.790913,0.019900,-0.034069,-0.042950,28.848566,-25.324247,-30.099285
1970.58,0.611971,0.264179,-0.137265,-0.362514,0.356936,0.049911,0.554551,-0.261117,-0.790121,0.053710,0.032723,0.035742,29.269510,-25.065475,-29.908897
1970.59,0.616407,0.262098,-0.133638,-0.345810,0.547899,0.196899,0.558364,-0.259108,-0.788094,0.102540,0.003782,0.024667,29.269510,-25.065475,-29.908897
1970.60,0.620575,0.260640,-0.128527,-0.406757,0.471537,0.323269,0.561863,-0.257699,-0.786067,0.098705,-0.080207,-0.022481,29.445208,-24.840157,-29.924417
1970.61,0.621140,0.257781,-0.123062,-0.544492,0.078578,0.197186,0.562734,-0.254936,-0.786345,-0.113866,-0.043907,0.022597,29.445208,-24.840157,-29.924417
1970.62,0.617448,0.252274,-0.118878,-0.669422,-0.345116,-0.052094,0.560631,-0.249606,-0.789551,-0.181877,-0.034406,0.061325,29.649782,-24.751297,-29.795773
1970.63,0.611651,0.244692,-0.116072,-0.753855,-0.490490,-0.250291,0.557115,-0.242258,-0.794314,-0.149415,0.091074,0.111880,29.649782,-24.751297,-29.795773
1970.64,0.607107,0.234928,-0.114406,-0.875389,-0.338432,-0.449957,0.554823,-0.232773,-0.798742,-0.122252,0.142502,0.205251,29.561808,-24.466290,-30.116848
1970.65,0.604345,0.222910,-0.113063,-1.047848,-0.197331,-0.566284,0.554164,-0.221068,-0.802515,-0.114284,0.106444,0.275278,29.561808,-24.466290,-30.116848
1970.66,0.603904,0.209499,-0.110655,-1.196293,0.101881,-0.507203,0.555444,-0.207970,-0.805128,0.027594,0.047829,0.270170,29.434515,-23.768705,-30.792568
1970.67,0.607219,0.196763,-0.106396,-1.211927,0.466696,-0.306203,0.559576,-0.195496,-0.805392,0.162409,-0.023315,0.174517,29.434515,-23.768705,-30.792568
1970.69,0.612413,0.184918,-0.100713,-1.225983,0.629110,-0.186660,0.565043,-0.183866,-0.804313,0.145025,0.007322,0.193260,29.627106,-22.715176,-31.397127
1970.70,0.620093,0.172254,-0.094719,-1.322060,0.925125,-0.266400,0.572511,-0.171403,-0.801781,0.035231,0.075929,0.336693,29.627106,-22.715176,-31.397127
1970.71,0.633624,0.157344,-0.089821,-1.434803,1.515936,-0.532372,0.584755,-0.156696,-0.795932,-0.063714,0.099704,0.417575,30.091059,-21.723045,-31.656937
1970.72,0.655349,0.140027,-0.088135,-1.353050,2.264472,-0.985007,0.603471,-0.139570,-0.785075,-0.120133,0.176252,0.404262,30.976185,-20.592031,-31.558969
1970.73,0.686481,0.121462,-0.094069,-0.888778,3.029569,-1.711283,0.629150,-0.121163,-0.767783,-0.314620,0.350076,0.184363,30.976185,-20.592031,-31.558969
1970.74,0.726236,0.102051,-0.109079,-0.371430,3.795393,-2.433332,0.660605,-0.101873,-0.743789,-0.453604,0.394095,0.268356,33.096928,-18.981836,-30.394203
1970.75,0.775322,0.079017,-0.130577,-0.177694,4.664058,-3.127721,0.697762,-0.078934,-0.711967,-0.417962,0.422211,0.334281,33.096928,-18.981836,-30.394203
1970.76,0.832392,0.050505,-0.157535,0.024965,5.394182,-3.889902,0.738601,-0.050483,-0.672250,-0.385863,0.586052,0.265054,36.559753,-16.837597,-27.557283
1970.77,0.896771,0.016949,-0.190835,0.463300,6.161903,-4.613968,0.781203,-0.016948,-0.624047,-0.332747,0.572536,0.062874,36.559753,-16.837597,-27.557283
1970.78,0.967906,-0.019061,-0.230580,1.163499,6.866253,-5.028423,0.823551,0.019060,-0.566923,-0.149494,0.492659,-0.213870,40.871521,-13.562361,-22.915176
1970.79,1.040248,-0.055156,-0.271847,1.495179,6.924256,-4.909194,0.861218,0.055128,-0.505237,0.058032,0.097627,-0.411756,40.871521,-13.562361,-22.915176
1970.80,1.106402,-0.092257,-0.308689,1.311684,6.301093,-4.664673,0.890291,0.092126,-0.445977,0.212722,-0.043176,-0.443137,44.946537,-9.539786,-16.380648
1970.81,1.161819,-0.129912,-0.338967,0.994559,5.261759,-4.318084,0.909796,0.129547,-0.394320,0.384622,0.007065,-0.429395,44.946537,-9.539786,-16.380648
1970.82,1.204153,-0.164583,-0.364541,1.006446,4.032431,-3.783349,0.920921,0.163841,-0.353640,0.438378,0.145867,-0.460203,47.378059,-5.398750,-10.280913
1970.83,1.234051,-0.192820,-0.391075,1.579908,3.068573,-3.208395,0.926344,0.191627,-0.324293,0.478045,0.260857,-0.586626,47.378059,-5.398750,-10.280913
1970.84,1.256998,-0.213700,-0.425782,2.715570,2.780833,-2.787863,0.929532,0.212077,-0.301652,0.336902,-0.007014,-0.740416,48.330521,-1.901931,-6.329919
1970.85,1.275757,-0.228610,-0.471517,3.845699,2.715336,-2.554717,0.931897,0.226624,-0.283212,0.243792,-0.057938,-0.460929,48.330521,-1.901931,-6.329919
1970.87,1.294681,-0.240777,-0.523918,4.382241,3.027559,-2.424711,0.934367,0.238457,-0.264756,0.175374,-0.057289,-0.081466,48.330521,-1.901931,-6.329919
1970.88,1.316964,-0.252153,-0.576877,4.346971,3.408454,-2.257191,0.937348,0.249490,-0.243175,0.181274,-0.090737,0.303416,48.654263,0.623304,-3.449480
1970.89,1.342868,-0.263479,-0.624688,3.813875,3.621625,-2.012071,0.940519,0.260441,-0.218162,0.210528,-0.166126,0.506447,48.654263,0.623304,-3.449480
1970.90,1.369285,-0.274708,-0.662700,2.910185,3.336245,-1.685766,0.943028,0.271266,-0.192646,0.238505,-0.218165,0.574726,48.692467,2.901911,-0.383227
1970.91,1.391788,-0.284692,-0.689683,2.014931,2.631194,-1.278180,0.944412,0.280862,-0.170887,0.278183,-0.306314,0.489322,48.692467,2.901911,-0.383227
1970.92,1.407552,-0.292153,-0.708637,1.449481,1.774955,-0.900681,0.944895,0.288015,-0.155633,0.232870,-0.358968,0.307763,48.436306,4.976274,2.947062
1970.93,1.414900,-0.298169,-0.723096,1.134274,0.866052,-0.747609,0.944284,0.293771,-0.148415,0.167029,-0.251779,0.228264,48.436306,4.976274,2.947062
1970.94,1.415518,-0.304875,-0.736787,1.147111,0.346049,-0.850059,0.942408,0.300174,-0.147524,0.074987,-0.027545,0.168947,48.085808,6.354387,5.186623
1970.95,1.413562,-0.312533,-0.752950,1.373454,0.298877,-0.955112,0.939820,0.307470,-0.149001,0.020019,0.035487,0.047118,48.085808,6.354387,5.186623
1970.96,1.413834,-0.319823,-0.770684,1.474450,0.626216,-0.907107,0.937621,0.314398,-0.148392,0.106049,-0.064734,0.133255,47.881718,7.296732,5.798561
1970.97,1.416910,-0.325814,-0.788107,1.439279,0.868337,-0.758144,0.936195,0.320080,-0.145216,0.220894,-0.089779,0.188978,47.881718,7.296732,5.798561
1970.98,1.422876,-0.329940,-0.804994,1.428627,1.159483,-0.564525,0.935731,0.323986,-0.139432,0.162719,-0.073208,0.207578,47.674850,8.415930,5.983757
1970.99,1.433111,-0.332627,-0.820885,1.340332,1.555445,-0.416022,0.936243,0.326527,-0.129727,0.119940,-0.037724,0.211041,47.415936,9.319731,6.663020
1971.00,1.448405,-0.334058,-0.835451,1.243388,2.004630,-0.268814,0.937653,0.327879,-0.115337,0.076630,-0.015624,0.162929,47.415936,9.319731,6.663020
1971.01,1.467829,-0.333819,-0.848960,1.180807,2.302139,-0.055978,0.939794,0.327654,-0.097111,0.103434,-0.121248,0.078770,47.078201,9.902030,8.069500
1971.02,1.488660,-0.331843,-0.862114,1.201171,2.384257,0.109495,0.942256,0.325786,-0.077568,0.045979,-0.152782,-0.008629,47.078201,9.902030,8.069500
1971.04,1.509648,-0.329416,-0.876795,1.371452,2.443028,0.134640,0.944463,0.323490,-0.057824,-0.062459,-0.063572,-0.085425,46.629276,10.149320,10.110696
1971.05,1.530687,-0.327625,-0.893495,1.537110,2.507213,0.073425,0.946048,0.321796,-0.037966,-0.073642,0.009564,-0.082121,46.629276,10.149320,10.110696
1971.06,1.551640,-0.327546,-0.911836,1.664880,2.532513,-0.090530,0.946661,0.321721,-0.018137,-0.052786,-0.002568,-0.099280,46.070942,10.372189,12.223354
1971.07,1.572190,-0.329419,-0.931567,1.785070,2.533421,-0.206480,0.946230,0.323493,0.001319,-0.048174,-0.057715,-0.129386,46.070942,10.372189,12.223354
1971.08,1.592850,-0.330153,-0.949080,1.444749,2.441964,0.012058,0.945763,0.324187,0.020861,0.126564,-0.142135,-0.025652,45.330929,10.963579,14.297944
1971.09,1.611082,-0.329405,-0.961432,0.997442,1.952250,0.136876,0.945467,0.323480,0.038110,0.190321,-0.158624,0.010032,45.330929,10.963579,14.297944
1971.10,1.623302,-0.325452,-0.970414,0.719579,1.254074,0.530864,0.946200,0.319737,0.049727,0.427915,-0.359975,-0.042265,44.597942,11.366978,16.166004
1971.11,1.629740,-0.313816,-0.977127,0.468475,0.685762,1.362923,0.949511,0.308690,0.056032,0.709776,-0.450795,0.051100,44.597942,11.366978,16.166004
1971.12,1.634276,-0.291673,-0.981506,0.209312,0.527190,2.347987,0.955835,0.287555,0.060758,0.854636,-0.333530,0.046878,44.386932,10.875553,17.060091
1971.13,1.638756,-0.261513,-0.985951,0.244051,0.545902,2.973518,0.963770,0.258543,0.065599,0.722494,-0.119505,-0.081025,44.386932,10.875553,17.060091
1971.14,1.644989,-0.231080,-0.992168,0.398896,0.817294,2.818573,0.970742,0.229029,0.072155,0.476158,0.116903,-0.036770,44.386932,10.875553,17.060091
1971.15,1.654796,-0.209317,-0.998543,0.414998,1.103894,1.779363,0.974724,0.207792,0.082069,0.001548,0.422396,0.020989,44.701744,8.614702,17.523289
1971.16,1.664534,-0.195758,-1.003503,0.315778,0.934236,1.238209,0.976594,0.194511,0.091812,-0.102205,0.635934,0.144943,44.701744,8.614702,17.523289
1971.17,1.668705,-0.181756,-1.007353,0.207702,0.282814,1.456338,0.978817,0.180757,0.096142,-0.239590,0.594115,0.178150,44.759315,6.392280,18.310286
1971.18,1.666916,-0.163757,-1.011911,0.301814,-0.129215,1.741934,0.982068,0.163026,0.094688,0.038639,0.280120,-0.021355,44.759315,6.392280,18.310286
1971.19,1.666260,-0.149692,-1.019557,0.680273,0.114821,1.215569,0.984315,0.149133,0.094253,-0.184815,0.259131,-0.179290,44.632378,5.244106,18.972988
1971.21,1.666562,-0.142608,-1.029245,0.851657,0.151009,0.605673,0.985313,0.142125,0.094648,-0.604469,0.535518,-0.003447,44.632378,5.244106,18.972988
1971.22,1.667300,-0.142111,-1.038214,0.815688,0.174602,-0.023550,0.985313,0.141633,0.095383,-0.539482,0.510650,0.099228,44.792351,3.933385,18.912903
1971.23,1.666341,-0.146257,-1.045137,0.633168,-0.054534,-0.404023,0.984811,0.145737,0.094380,-0.334299,0.262711,0.102931,44.792351,3.933385,18.912903
1971.24,1.663003,-0.153753,-1.050764,0.593792,-0.300738,-0.762119,0.984005,0.153148,0.090990,-0.298489,0.334294,0.015181,44.757450,3.850949,19.012245
1971.25,1.656269,-0.167963,-1.056043,0.596579,-0.656027,-1.499638,0.982328,0.167174,0.084168,-0.380460,0.615419,-0.058380,44.757450,3.850949,19.012245
1971.26,1.644339,-0.190730,-1.059004,0.389752,-1.231344,-2.300989,0.979212,0.189575,0.072144,-0.397974,0.684555,-0.096894,44.759884,4.572084,18.846033
1971.27,1.626397,-0.221407,-1.062388,0.602683,-1.739033,-3.096911,0.974082,0.219603,0.054215,-0.411490,0.563021,-0.280030,44.879326,6.399320,18.011635
1971.28,1.606459,-0.259525,-1.065607,0.310826,-1.689613,-3.643580,0.965898,0.256621,0.034462,-0.432267,0.431474,0.076348,44.879326,6.399320,18.011635
1971.29,1.594566,-0.300851,-1.066126,0.149015,-0.962514,-4.004926,0.954815,0.296333,0.022700,-0.418911,0.259102,0.313360,44.955280,9.645504,16.294525
1971.30,1.590158,-0.350103,-1.066000,0.085343,-0.243986,-4.864705,0.939161,0.342995,0.018186,-0.644255,0.246269,0.303957,44.955280,9.645504,16.294525
1971.31,1.592373,-0.405851,-1.068318,0.427736,0.468693,-5.348062,0.918553,0.394801,0.019822,-0.640706,0.325200,0.172805,44.154076,13.727780,15.539944
1971.32,1.597668,-0.461954,-1.078095,1.138086,0.984336,-5.153351,0.894860,0.445698,0.024052,0.065147,-0.141011,-0.315038,44.154076,13.727780,15.539944
1971.33,1.600295,-0.511408,-1.092314,1.300921,0.787567,-4.430464,0.871677,0.489405,0.025721,0.386639,-0.550242,-0.071818,42.146851,18.762146,15.847688
1971.34,1.599567,-0.550763,-1.103855,0.905769,0.390640,-3.383967,0.851773,0.523338,0.024513,0.664310,-0.954978,0.146370,42.146851,18.762146,15.847688
1971.35,1.597142,-0.577351,-1.108264,0.290493,-0.146362,-2.233672,0.837621,0.545806,0.022073,0.798442,-1.051970,0.158469,40.085629,22.786188,15.920316
1971.36,1.593694,-0.595206,-1.109460,0.121194,-0.243638,-1.515270,0.827816,0.560679,0.018958,0.825413,-0.860118,0.141289,40.085629,22.786188,15.920316
1971.37,1.592188,-0.605937,-1.112274,0.293924,0.116517,-0.830263,0.821781,0.569532,0.017582,0.912381,-0.633451,0.048977,39.079723,24.632763,15.669287
1971.39,1.593915,-0.608647,-1.116356,0.299628,0.440060,-0.049516,0.820203,0.571758,0.018966,0.958682,-0.392284,0.004152,39.079723,24.632763,15.669287
1971.40,1.598006,-0.604105,-1.117736,0.012182,0.450775,0.558016,0.822706,0.568026,0.022391,0.757799,-0.177843,0.114831,38.683201,25.244072,15.680279
1971.41,1.604287,-0.594350,-1.115658,-0.240283,0.510220,1.051240,0.828048,0.559970,0.027742,0.504227,-0.224704,0.157591,38.683201,25.244072,15.680279
1971.42,1.613420,-0.578175,-1.113052,-0.245084,0.815562,1.667874,0.836701,0.546497,0.035685,0.485000,-0.311893,0.174550,38.881016,24.674866,16.091671
1971.43,1.624841,-0.556149,-1.114331,0.135632,1.255843,2.195912,0.848054,0.527920,0.045877,0.354720,-0.238415,0.032171,38.881016,24.674866,16.091671
1971.44,1.636402,-0.534190,-1.123588,0.760781,1.622087,2.065407,0.858830,0.509144,0.056425,-0.221821,0.185955,-0.118788,38.881016,24.674866,16.091671
1971.45,1.650377,-0.515381,-1.134857,0.704045,1.905094,1.696275,0.867351,0.492866,0.069170,-0.556057,0.562707,0.210005,39.464828,23.135546,16.935120
1971.46,1.665994,-0.501503,-1.140738,0.267353,1.674807,1.268888,0.872891,0.480744,0.083349,-0.320904,0.329605,0.153056,39.464828,23.135546,16.935120
1971.47,1.679193,-0.488948,-1.142541,-0.039727,1.187584,1.183043,0.877646,0.469697,0.095508,-0.050040,0.205016,0.056821,39.774494,21.737135,18.028057
1971.48,1.687966,-0.475153,-1.142913,-0.127956,0.751209,1.363239,0.883126,0.457474,0.103952,0.178535,0.072509,0.012564,39.774494,21.737135,18.028057
1971.49,1.694356,-0.457903,-1.143089,-0.216802,0.589251,1.695220,0.890143,0.442068,0.110549,0.245492,-0.095328,0.094346,39.741215,20.744247,19.231133
1971.50,1.703382,-0.436518,-1.140452,-0.589872,0.828012,2.070182,0.898276,0.422786,0.119802,0.415186,-0.230220,0.228511,39.741215,20.744247,19.231133
1971.51,1.717450,-0.410016,-1.133377,-1.056978,1.108313,2.497252,0.907270,0.398624,0.134017,0.628802,-0.357105,0.207399,40.060486,19.450661,19.908630
1971.52,1.731911,-0.378442,-1.124981,-1.193061,0.983667,2.913864,0.917207,0.369474,0.149068,0.831145,-0.381085,-0.008306,40.060486,19.450661,19.908630
1971.53,1.741128,-0.344333,-1.116812,-1.293569,0.446026,3.081562,0.927679,0.337569,0.159559,0.781718,-0.093566,-0.059614,40.521862,17.275938,20.953403
1971.54,1.744148,-0.308602,-1.104728,-1.756642,-0.264165,3.142004,0.938479,0.303727,0.164337,0.604169,-0.067613,0.111924,40.521862,17.275938,20.953403
1971.56,1.741331,-0.272213,-1.089288,-1.997305,-0.822535,3.148000,0.949206,0.268864,0.163460,0.466489,-0.039418,-0.069863,41.125919,14.175879,22.073236
1971.57,1.729927,-0.235151,-1.075636,-1.787428,-1.610904,3.200291,0.960192,0.232990,0.154099,0.036832,0.339932,0.093063,42.130737,10.557626,22.204998
1971.58,1.717353,-0.204563,-1.062440,-1.494607,-1.381694,2.459745,0.968653,0.203139,0.142988,-0.710490,0.429765,-0.320341,42.130737,10.557626,22.204998
1971.59,1.702948,-0.186085,-1.055411,-0.686827,-1.460289,1.375209,0.974167,0.185012,0.129493,-1.139054,0.797150,-0.289588,43.342529,7.085492,21.230764
1971.60,1.694774,-0.177011,-1.052876,-0.296536,-0.560277,0.613732,0.976819,0.176088,0.121728,-1.288556,0.884535,-0.163370,43.342529,7.085492,21.230764
1971.61,1.694295,-0.177166,-1.050359,-0.193970,0.088406,-0.121118,0.976850,0.176241,0.121257,-1.215681,1.097655,0.111958,44.014622,5.678139,20.248367
1971.62,1.698169,-0.171991,-1.047647,-0.363404,0.313489,0.614689,0.977265,0.171145,0.125155,-0.238190,-0.066439,0.216749,44.014622,5.678139,20.248367
1971.63,1.703336,-0.161248,-1.044658,-0.423183,0.511564,1.079059,0.978371,0.160551,0.130438,-0.086052,-0.313428,0.130320,43.988029,5.370821,20.389503
1971.64,1.710115,-0.148793,-1.040116,-0.641754,0.567751,1.084313,0.979369,0.148244,0.137334,-0.101882,-0.075414,0.021526,43.988029,5.370821,20.389503
1971.65,1.717000,-0.137457,-1.031303,-1.102822,0.514915,0.895982,0.980000,0.137025,0.144309,-0.015949,0.049545,0.088235,43.871361,4.188263,20.911392
1971.66,1.726662,-0.127808,-1.014467,-1.904034,0.828530,0.514541,0.979820,0.127460,0.153969,0.165962,0.080090,0.218147,43.871361,4.188263,20.911392
1971.67,1.740394,-0.123432,-0.987895,-2.688269,0.921281,-0.106048,0.978154,0.123119,0.167502,0.207897,-0.178691,-0.195227,43.654781,2.843858,21.580011
1971.68,1.749588,-0.120514,-0.958039,-2.775348,0.425250,-0.235374,0.976922,0.120223,0.176551,-0.127511,-0.232344,-0.326392,43.654781,2.843858,21.580011
1971.69,1.753256,-0.117423,-0.928351,-2.825992,-0.184494,-0.192989,0.976629,0.117154,0.180199,-0.162374,-0.071988,-0.131417,43.299484,1.695521,22.400988
1971.70,1.747730,-0.113653,-0.896827,-3.011003,-1.044024,-0.193973,0.978037,0.113409,0.174877,-0.276499,0.059229,0.024083,43.299484,1.695521,22.400988
1971.71,1.738687,-0.110176,-0.864176,-3.077629,-1.222188,-0.195946,0.979962,0.109953,0.166089,-0.243099,0.073076,0.214755,43.299484,1.695521,22.400988
1971.72,1.729128,-0.106935,-0.832191,-2.964074,-1.223222,-0.186188,0.981851,0.106731,0.156770,-0.226617,0.029240,0.335143,43.495453,0.511336,22.077326
1971.74,1.721072,-0.105045,-0.803601,-2.556415,-0.962962,-0.259710,0.983280,0.104852,0.148885,-0.269504,0.019599,0.353510,43.495453,0.511336,22.077326
1971.75,1.715426,-0.106167,-0.778916,-2.197491,-0.697541,-0.511280,0.983988,0.105968,0.143314,-0.316141,0.082158,0.428967,44.049129,-0.696561,20.945484
1971.76,1.714321,-0.109306,-0.755350,-2.163836,-0.217629,-0.626644,0.983811,0.109089,0.142179,-0.178315,-0.039509,0.459277,44.049129,-0.696561,20.945484
1971.77,1.717182,-0.113758,-0.731759,-2.067042,0.100134,-0.778445,0.982910,0.113513,0.144920,-0.019455,-0.020862,0.373192,44.453762,-1.451902,20.031963
1971.78,1.723742,-0.120335,-0.711226,-1.740530,0.504244,-0.953823,0.981180,0.120045,0.151248,-0.051599,-0.066303,0.123120,44.453762,-1.451902,20.031963
1971.79,1.733888,-0.129998,-0.692236,-1.572789,0.792172,-1.259071,0.978404,0.129632,0.160999,-0.208079,-0.107827,0.164226,44.544563,-1.717268,19.808010
1971.80,1.746310,-0.144141,-0.671368,-1.767154,0.939747,-1.798562,0.974426,0.143642,0.172803,-0.453903,0.001057,0.361560,44.544563,-1.717268,19.808010
1971.81,1.762050,-0.160665,-0.646612,-2.041938,1.137565,-1.960271,0.969123,0.159975,0.187642,-0.481772,-0.291307,0.043285,44.341156,-1.462251,20.279255
1971.82,1.775663,-0.174069,-0.626553,-1.299559,0.838784,-1.361150,0.964292,0.173192,0.200362,0.402331,0.125835,-0.591674,44.341156,-1.462251,20.279255
1971.83,1.783029,-0.179607,-0.622185,0.003562,0.665109,-0.486361,0.961838,0.178643,0.207255,0.361343,-0.130974,-0.738078,43.933342,-0.588012,21.190563
1971.84,1.794955,-0.183612,-0.625328,0.413638,1.379840,-0.236588,0.958593,0.182582,0.218549,0.461360,0.010671,-0.580564,43.933342,-0.588012,21.190563
1971.85,1.813661,-0.186893,-0.628018,0.261767,1.897034,-0.266227,0.953750,0.185807,0.236297,0.462632,0.372817,-0.257201,43.577042,0.008457,21.921812
1971.86,1.833494,-0.191658,-0.627870,0.037983,1.813552,-0.513871,0.948011,0.190487,0.254932,0.501727,0.319050,-0.106159,42.859241,0.422844,23.290148
1971.87,1.850005,-0.198299,-0.625566,-0.030400,1.398612,-0.695998,0.942436,0.197002,0.270194,0.495690,0.286137,-0.176475,42.859241,0.422844,23.290148
1971.88,1.862687,-0.204644,-0.622283,-0.168766,1.095192,-0.655581,0.937718,0.203218,0.281759,0.368694,0.184721,-0.135503,41.988441,0.931662,24.811829
1971.89,1.875844,-0.209986,-0.618255,-0.196462,1.171841,-0.515249,0.932881,0.208446,0.293742,0.130398,0.140324,0.001531,41.988441,0.931662,24.811829
1971.91,1.885078,-0.212905,-0.616636,-0.008409,0.698777,-0.254642,0.929546,0.211300,0.302153,0.192570,0.086673,0.016404,41.356239,1.395614,25.830952
1971.92,1.888959,-0.214565,-0.617165,0.121952,0.307735,-0.090753,0.928032,0.212923,0.305649,0.053047,0.221602,0.182984,41.356239,1.395614,25.830952
1971.93,1.891032,-0.214749,-0.618739,0.146115,0.202714,0.059877,0.927359,0.213103,0.307560,0.006220,0.127001,0.223827,41.012970,1.598749,26.361042
1971.94,1.891185,-0.214517,-0.620793,0.184355,-0.013941,0.082357,0.927359,0.212875,0.307717,0.083582,0.067353,0.158912,41.012970,1.598749,26.361042
1971.95,1.887533,-0.214277,-0.623335,0.215238,-0.379054,0.099765,0.928525,0.212641,0.304344,0.156680,0.159750,0.083336,40.935627,1.639795,26.478477
1971.96,1.882241,-0.213301,-0.623798,-0.079813,-0.482782,0.095557,0.930320,0.211687,0.299489,0.267785,0.352995,0.126826,40.935627,1.639795,26.478477
1971.97,1.876887,-0.212679,-0.621648,-0.228637,-0.590470,-0.053939,0.932035,0.211080,0.294544,0.157442,0.082530,-0.016330,41.157513,1.618398,26.133585
1971.98,1.870778,-0.214063,-0.618143,-0.280908,-0.665941,-0.272748,0.933537,0.212432,0.288758,0.133220,0.024705,-0.007798,41.157513,1.618398,26.133585
1971.99,1.862842,-0.216747,-0.614035,-0.282982,-0.898427,-0.366587,0.935250,0.215054,0.281175,0.147621,0.048084,0.024809,41.481327,1.586711,25.618473
1972.00,1.851053,-0.219487,-0.611462,-0.089406,-1.266633,-0.271113,0.937930,0.217729,0.269967,0.085019,0.151427,-0.037453,41.481327,1.586711,25.618473
1972.01,1.831556,-0.220415,-0.614597,0.474953,-1.986235,0.078202,0.942819,0.218634,0.251577,0.077795,0.034997,-0.192495,41.481327,1.586711,25.618473
1972.02,1.799897,-0.219846,-0.627272,1.328296,-2.953463,0.424111,0.950431,0.218079,0.221635,-0.053977,-0.212922,-0.305589,42.002369,1.763209,24.743002
1972.03,1.761378,-0.217618,-0.645651,1.616765,-3.212840,0.561267,0.958736,0.215904,0.184962,-0.191982,-0.082039,0.237630,42.002369,1.763209,24.743002
1972.04,1.734291,-0.215625,-0.659744,1.086320,-1.882097,0.354365,0.963816,0.213958,0.158998,-0.194071,0.097260,0.269728,43.140591,1.968820,22.683416
1972.05,1.724007,-0.214753,-0.665958,0.378165,-0.536397,0.123509,0.965584,0.213107,0.149107,-0.156151,0.133802,0.243609,43.140591,1.968820,22.683416
1972.06,1.725993,-0.213529,-0.666635,-0.033252,0.411482,0.139575,0.965543,0.211910,0.151064,-0.065824,0.125248,0.043074,44.414330,2.163939,20.055157
1972.07,1.734298,-0.211278,-0.666582,-0.015163,0.867285,0.229972,0.964724,0.209710,0.159155,0.076094,0.114921,-0.168249,44.414330,2.163939,20.055157
1972.09,1.746966,-0.208179,-0.669664,0.317522,1.427499,0.381494,0.963265,0.206679,0.171476,0.233115,-0.096937,-0.353559,44.557007,2.149977,19.737654
1972.10,1.769261,-0.204905,-0.676047,0.574004,2.524190,0.406722,0.959861,0.203474,0.193040,0.259789,-0.268431,-0.346956,44.557007,2.149977,19.737654
1972.11,1.801978,-0.203483,-0.682937,0.569615,3.399906,0.204839,0.953314,0.202082,0.224400,0.135660,-0.082422,-0.221105,44.131985,1.935530,20.691687
1972.12,1.840775,-0.203989,-0.687881,0.417066,3.821404,0.029646,0.943794,0.202577,0.261181,0.043526,0.041564,0.062335,42.879150,1.879395,23.181257
1972.13,1.877621,-0.204633,-0.689909,0.124615,3.285346,0.015407,0.933407,0.203208,0.295731,-0.224316,0.067010,0.233520,42.879150,1.879395,23.181257
1972.14,1.902500,-0.203718,-0.689422,-0.112458,1.890678,0.102451,0.925937,0.202312,0.318920,-0.350422,0.072468,0.344944,40.969318,2.020626,26.399933
1972.15,1.910194,-0.201955,-0.689287,-0.003744,0.401352,0.174390,0.923791,0.200585,0.326153,0.047263,0.031822,0.044972,40.969318,2.020626,26.399933
1972.16,1.909991,-0.200793,-0.693241,0.418374,0.021738,0.236367,0.924076,0.199447,0.326043,0.126613,-0.081100,-0.046105,40.095844,1.886877,27.717999
1972.17,1.911441,-0.200668,-0.701624,0.818148,0.429857,0.283674,0.923626,0.199324,0.327391,0.063541,-0.191771,0.010546,40.095844,1.886877,27.717999
1972.18,1.918799,-0.200517,-0.712602,0.959664,1.030724,0.376594,0.921220,0.199176,0.334188,-0.066835,-0.064761,0.104319,40.002796,1.981530,27.845543
1972.19,1.927095,-0.200448,-0.722474,0.794522,0.885263,0.302138,0.918429,0.199109,0.341824,-0.332629,-0.122891,0.034229,40.002796,1.981530,27.845543
1972.20,1.932758,-0.196901,-0.730695,0.534888,0.680585,0.745850,0.917133,0.195632,0.347268,-0.476719,-0.232329,0.012031,39.458961,2.235929,28.592222
1972.21,1.938751,-0.186063,-0.738677,0.258488,0.722505,1.369536,0.916961,0.184991,0.353499,-0.313216,-0.104593,-0.113753,39.458961,2.235929,28.592222
1972.22,1.948238,-0.169094,-0.745659,-0.055604,1.147538,1.811752,0.916352,0.168289,0.363287,-0.155366,-0.069733,-0.183660,39.070808,1.768735,29.152491
1972.23,1.963870,-0.154649,-0.750263,-0.114012,1.654235,1.212115,0.912712,0.154033,0.378458,-0.029640,-0.021434,-0.068888,39.070808,1.768735,29.152491
1972.24,1.979670,-0.150825,-0.751821,0.055612,1.378431,0.091563,0.907152,0.150254,0.393063,0.045149,0.157837,0.109272,38.303970,0.444413,30.201536
1972.26,1.989364,-0.156319,-0.754017,0.493523,0.885279,-0.441937,0.902531,0.155684,0.401497,0.105968,0.262682,0.123482,38.303970,0.444413,30.201536
1972.27,1.996542,-0.161961,-0.758372,0.601506,0.699560,-0.248585,0.898812,0.161254,0.407595,-0.151376,-0.123229,0.099165,38.303970,0.444413,30.201536
1972.28,2.003743,-0.164777,-0.765263,0.726051,0.832631,0.122638,0.895438,0.164032,0.413864,-0.076835,0.018295,0.086075,37.503494,0.571950,31.187902
1972.29,2.011018,-0.164447,-0.774319,0.737146,0.797769,0.465532,0.892452,0.163707,0.420391,-0.023327,0.089177,0.031299,37.503494,0.571950,31.187902
1972.30,2.016456,-0.161191,-0.782726,0.509346,0.598100,0.645680,0.890629,0.160494,0.425466,0.044872,0.089384,0.027309,36.991577,1.116360,31.778940
1972.31,2.022167,-0.156314,-0.788370,0.202006,0.603316,0.619204,0.888879,0.155678,0.430881,0.001136,-0.016670,0.048229,36.991577,1.116360,31.778940
1972.32,2.027310,-0.151020,-0.791268,-0.017526,0.512579,0.559029,0.887379,0.150447,0.435804,-0.019703,-0.044657,0.126513,36.505310,1.178839,32.334145
1972.33,2.032971,-0.144867,-0.793941,-0.029091,0.594060,0.677327,0.885709,0.144361,0.441225,-0.070508,-0.067502,0.139356,36.505310,1.178839,32.334145
1972.34,2.040213,-0.134337,-0.798180,-0.129963,0.819677,1.235017,0.883797,0.133933,0.448290,0.085700,-0.160697,0.171995,36.121544,0.815718,32.773354
1972.35,2.050736,-0.114740,-0.802438,-0.698621,1.047460,2.085239,0.881190,0.114488,0.458690,-0.135432,-0.409486,0.095754,36.121544,0.815718,32.773354
1972.36,2.064528,-0.081967,-0.803301,-1.490452,1.469781,2.840851,0.877614,0.081875,0.472324,-0.230138,-0.573239,0.232297,35.671452,0.126308,33.272446
1972.37,2.081996,-0.053049,-0.805315,-0.975063,1.697941,2.347898,0.870931,0.053024,0.488536,0.128550,-0.197495,0.222524,35.671452,0.126308,33.272446
1972.38,2.097782,-0.031381,-0.812284,-0.286112,1.398142,2.030301,0.863901,0.031376,0.502683,0.288641,0.435604,-0.153928,34.781372,-2.257880,34.127449
1972.39,2.108929,-0.016259,-0.819687,-0.120683,0.959933,1.389308,0.858554,0.016258,0.512466,0.152280,0.461449,-0.379882,34.781372,-2.257880,34.127449
1972.40,2.114299,-0.007892,-0.820890,-0.391440,0.324015,0.517009,0.855876,0.007892,0.517121,0.150655,0.373364,-0.390748,33.446514,-4.499375,35.222301
1972.41,2.111631,-0.004902,-0.814432,-0.757596,-0.425220,-0.258873,0.857269,0.004902,0.514846,0.179108,0.171352,-0.155623,32.731705,-5.475725,35.751587
1972.43,2.105328,-0.006153,-0.801320,-1.066329,-0.609343,-0.903227,0.860491,0.006153,0.509429,0.054029,-0.167698,0.030931,32.731705,-5.475725,35.751587
1972.44,2.097349,-0.010341,-0.783527,-1.312003,-0.856376,-1.232544,0.864498,0.010340,0.502529,0.002018,-0.347819,0.108173,33.103844,-5.823010,35.351833
1972.45,2.084387,-0.014119,-0.764329,-1.397256,-1.370441,-1.185527,0.870899,0.014119,0.491259,-0.031803,-0.230534,0.153410,33.103844,-5.823010,35.351833
1972.46,2.068744,-0.017051,-0.747188,-1.215350,-1.491821,-0.953187,0.878437,0.017050,0.477554,-0.119083,-0.107595,0.113739,33.997623,-5.949544,34.471565
1972.47,2.056832,-0.018484,-0.735038,-0.840351,-0.981842,-0.553416,0.884041,0.018483,0.467045,-0.103126,-0.039540,0.018124,33.997623,-5.949544,34.471565
1972.48,2.052485,-0.019105,-0.728308,-0.500613,-0.227779,-0.316655,0.886052,0.019104,0.463192,-0.094533,0.098130,-0.238964,35.056404,-6.133563,33.360939
1972.49,2.049620,-0.020943,-0.720298,-0.613258,-0.342336,-0.582910,0.887343,0.020941,0.460635,-0.149916,-0.193717,-0.084445,35.056404,-6.133563,33.360939
1972.50,2.048819,-0.023931,-0.711201,-0.618060,0.004692,-0.640759,0.887652,0.023929,0.459892,0.025068,-0.193622,0.238655,35.361073,-6.211609,33.023247
1972.51,2.046638,-0.027664,-0.702140,-0.605313,-0.375313,-0.727117,0.888567,0.027660,0.457911,-0.114397,-0.244243,0.223119,35.361073,-6.211609,33.023247
1972.52,2.038159,-0.031155,-0.692335,-0.690550,-0.963050,-0.680133,0.892326,0.031150,0.450315,-0.053779,-0.243965,0.177798,35.562111,-6.133373,32.821369
1972.53,2.024276,-0.033196,-0.683951,-0.591183,-1.454324,-0.475904,0.898433,0.033190,0.437855,-0.166301,-0.160997,0.125789,35.562111,-6.133373,32.821369
1972.54,2.007497,-0.034877,-0.676775,-0.539428,-1.638587,-0.437246,0.905601,0.034870,0.422695,-0.198295,-0.370823,0.072834,36.383980,-6.108207,31.912693
1972.55,1.989572,-0.036889,-0.668638,-0.647848,-1.727875,-0.495084,0.912966,0.036881,0.406366,-0.032549,-0.492173,0.130271,36.383980,-6.108207,31.912693
1972.56,1.973217,-0.038174,-0.660730,-0.586612,-1.533526,-0.371081,0.919445,0.038165,0.391362,0.171070,-0.274524,0.192104,36.383980,-6.108207,31.912693
1972.57,1.956632,-0.041125,-0.657578,-0.056877,-1.525887,-0.386782,0.925701,0.041113,0.376015,0.171925,-0.452887,-0.119835,37.544487,-6.129891,30.534573
1972.58,1.947704,-0.044223,-0.655442,-0.065931,-0.640907,-0.327291,0.928898,0.044209,0.367687,0.358257,-0.087117,0.118626,37.544487,-6.129891,30.534573
1972.59,1.942383,-0.046765,-0.654180,-0.055167,-0.484529,-0.242031,0.930734,0.046748,0.362697,0.279761,0.139684,-0.056789,38.591686,-6.071055,29.212128
1972.61,1.938200,-0.049572,-0.651168,-0.210122,-0.393948,-0.414929,0.932117,0.049552,0.358753,0.073071,0.004800,-0.091800,38.591686,-6.071055,29.212128
1972.62,1.935007,-0.053243,-0.646215,-0.317299,-0.274214,-0.487459,0.933081,0.053218,0.355708,-0.125098,0.227391,-0.076594,39.046936,-5.849805,28.646828
1972.63,1.934459,-0.055918,-0.642081,-0.289552,0.003525,-0.326758,0.933139,0.055889,0.355144,-0.194294,0.364674,0.045949,39.046936,-5.849805,28.646828
1972.64,1.938200,-0.055914,-0.637378,-0.417526,0.497400,-0.137913,0.931805,0.055885,0.358632,-0.554028,-0.621498,0.262187,39.319527,-5.645890,28.312952
1972.65,1.949646,-0.055359,-0.633710,-0.337818,1.070884,-0.023423,0.927667,0.055330,0.369285,-0.486871,-0.681261,0.091728,39.319527,-5.645890,28.312952
1972.66,1.953209,-0.053712,-0.629996,-0.403161,0.096590,0.008790,0.926429,0.053686,0.372622,-0.112037,-0.289511,0.062177,39.274567,-5.630348,28.378372
1972.67,1.951972,-0.051632,-0.625785,-0.437852,-0.175162,0.057649,0.926991,0.051609,0.371516,0.030880,0.143856,-0.080226,39.274567,-5.630348,28.378372
1972.68,1.948773,-0.049191,-0.623220,-0.271380,-0.338847,0.124583,0.928289,0.049171,0.368594,0.096018,0.414071,-0.155582,38.859970,-5.824501,28.905056
1972.69,1.947415,-0.045901,-0.620447,-0.394149,-0.024583,0.251745,0.928934,0.045885,0.367391,0.078161,0.337462,-0.076436,38.987633,-6.119373,28.671276
1972.70,1.951921,-0.040088,-0.619334,-0.223669,0.542269,0.528668,0.927501,0.040077,0.371666,0.046635,0.122627,-0.088066,38.987633,-6.119373,28.671276
1972.71,1.959496,-0.036359,-0.621899,0.140031,0.765083,0.323985,0.924791,0.036351,0.378735,0.103438,-0.199941,-0.054852,38.857651,-6.592797,28.742695
1972.72,1.965554,-0.037141,-0.615428,-0.608796,0.344273,-0.493776,0.922453,0.037132,0.384320,0.147814,-0.511726,-0.014065,38.857651,-6.592797,28.742695
1972.73,1.963355,-0.040443,-0.610987,-0.239799,-0.304365,-0.407783,0.923178,0.040432,0.382241,0.233439,0.015720,-0.224541,38.458435,-6.778257,29.232317
1972.74,1.961858,-0.040929,-0.608395,-0.162272,-0.099779,-0.013567,0.923731,0.040917,0.380851,0.426580,-0.053170,0.136712,38.458435,-6.778257,29.232317
1972.75,1.961007,-0.037877,-0.611749,0.324613,-0.063970,0.542474,0.924166,0.037868,0.380110,0.394880,-0.327495,0.090898,38.615833,-6.686609,29.045326
1972.76,1.959510,-0.031105,-0.620930,0.567470,-0.114723,0.983843,0.924950,0.031100,0.378815,0.273186,-0.040636,0.091827,38.615833,-6.686609,29.045326
1972.78,1.959115,-0.021426,-0.629438,0.331933,0.008907,1.234344,0.925335,0.021425,0.378546,0.115437,0.331664,0.127130,38.576176,-6.993088,29.025845
1972.79,1.961339,-0.008982,-0.638327,0.375647,0.294824,1.417403,0.924665,0.008982,0.380675,-0.000242,0.356802,-0.085326,38.576176,-6.993088,29.025845
1972.80,1.962187,0.004190,-0.652967,0.934705,-0.090685,1.845732,0.924371,-0.004190,0.381471,0.058218,-0.154516,-0.044557,38.312420,-7.810199,29.166481
1972.81,1.957552,0.019556,-0.672235,1.220417,-0.363819,2.061772,0.925961,-0.019555,0.377114,0.112034,0.080697,0.119682,38.312420,-7.810199,29.166481
1972.82,1.964291,0.031696,-0.696715,1.823562,0.920012,1.816777,0.923111,-0.031691,0.383226,0.180496,0.070998,0.084273,38.103821,-8.710202,29.184851
1972.83,1.981733,0.036601,-0.717227,1.457521,1.659474,0.920713,0.916133,-0.036593,0.399201,-0.176265,0.511111,-0.049713,38.103821,-8.710202,29.184851
1972.84,1.986979,0.031718,-0.725985,0.752720,-0.119845,-0.373186,0.914179,-0.031713,0.404068,-0.999796,1.429464,-0.520020,38.103821,-8.710202,29.184851
1972.85,1.975734,0.026685,-0.728585,0.316499,-1.147348,-0.209038,0.918800,-0.026682,0.393822,-1.030143,1.412668,-0.669731,37.129044,-8.921295,30.354057
1972.86,1.971507,0.029213,-0.728534,-0.237606,-0.154442,0.330929,0.920391,-0.029209,0.389907,0.404835,0.431354,0.558732,37.129044,-8.921295,30.354057
1972.87,1.973275,0.033426,-0.727390,-0.225240,0.334804,0.296742,0.919579,-0.033419,0.391482,0.310310,0.354342,0.093122,37.361305,-8.315067,30.240974
1972.88,1.976817,0.035936,-0.726973,-0.093920,0.252282,0.180865,0.918107,-0.035928,0.394701,0.212737,0.196451,0.089262,37.361305,-8.315067,30.240974
1972.89,1.977724,0.038375,-0.727037,-0.113815,0.046819,0.231133,0.917665,-0.038365,0.395498,0.160368,0.150212,0.092035,37.385864,-8.642273,30.118639
1972.90,1.977915,0.042609,-0.725575,-0.352522,0.031241,0.344668,0.917432,-0.042596,0.395606,0.073016,0.137277,0.061013,37.385864,-8.642273,30.118639
1972.91,1.979757,0.048568,-0.722194,-0.558949,0.265790,0.394513,0.916453,-0.048549,0.397187,0.012533,0.174571,0.038467,37.212532,-8.875401,30.265142
1972.92,1.983854,0.055485,-0.717568,-0.683807,0.436950,0.426643,0.914488,-0.055457,0.400794,0.053041,0.171317,-0.001289,37.212532,-8.875401,30.265142
1972.93,1.986985,0.062452,-0.712158,-0.749025,0.266324,0.376596,0.912853,-0.062412,0.403489,0.041736,0.153003,-0.036042,37.076653,-9.408503,30.270878
1972.94,1.987898,0.068533,-0.706510,-0.709127,0.063669,0.283188,0.912121,-0.068479,0.404161,0.056217,0.056806,-0.015153,37.076653,-9.408503,30.270878
1972.96,1.986306,0.074826,-0.700170,-0.794411,-0.147191,0.320474,0.912351,-0.074756,0.402527,-0.004087,-0.122280,0.004883,36.755222,-10.177196,30.413857
1972.97,1.982096,0.081289,-0.695776,-0.523038,-0.443549,0.408119,0.913575,-0.081199,0.398481,-0.113481,-0.207955,-0.056348,36.755222,-10.177196,30.413857
1972.98,1.976416,0.084934,-0.697195,0.140239,-0.539417,0.345608,0.915546,-0.084832,0.393166,-0.127307,-0.158149,0.154579,36.682507,-10.898902,30.251148
1972.99,1.974813,0.086688,-0.701447,0.329169,-0.042010,0.309478,0.916037,-0.086580,0.391638,-0.086798,-0.035124,0.084955,36.882294,-11.399124,29.820808
1973.00,1.976227,0.088489,-0.706355,0.343829,0.088083,0.344208,0.915337,-0.088374,0.392871,-0.051781,0.049952,-0.023120,36.882294,-11.399124,29.820808
1973.01,1.976646,0.090932,-0.710649,0.248678,-0.045350,0.374032,0.914971,-0.090806,0.393169,-0.036233,0.001115,-0.028591,36.833179,-11.443837,29.864357
1973.02,1.976025,0.094113,-0.713372,0.081997,-0.081375,0.376061,0.914945,-0.093974,0.392484,-0.020643,-0.012685,-0.032972,36.833179,-11.443837,29.864357
1973.03,1.974638,0.097017,-0.715503,0.077324,-0.176327,0.309385,0.915234,-0.096865,0.391106,-0.003170,-0.001158,-0.025780,36.766998,-11.609814,29.881840
1973.04,1.972497,0.099513,-0.716840,-0.005189,-0.215129,0.254293,0.915844,-0.099349,0.389050,0.031925,0.011138,0.039326,36.766998,-11.609814,29.881840
1973.05,1.970620,0.101837,-0.717306,-0.043286,-0.174626,0.203376,0.916357,-0.101661,0.387239,0.014337,0.021979,0.033965,36.808163,-11.810940,29.752062
1973.06,1.968856,0.103455,-0.717715,-0.022068,-0.165959,0.140703,0.916886,-0.103271,0.385557,0.004104,0.004806,0.036333,36.808163,-11.810940,29.752062
1973.07,1.967421,0.104564,-0.717936,-0.018202,-0.123427,0.093903,0.917332,-0.104373,0.384198,-0.010640,0.007785,0.044559,36.871635,-11.978960,29.605934
1973.08,1.966369,0.105147,-0.718250,0.010356,-0.094400,0.048575,0.917680,-0.104953,0.383209,-0.012925,0.010181,0.042145,36.871635,-11.978960,29.605934
1973.09,1.965595,0.105326,-0.718446,0.008004,-0.068807,0.015270,0.917959,-0.105132,0.382491,-0.000951,0.017790,0.019807,36.925564,-12.048920,29.510181
1973.10,1.964949,0.105310,-0.718497,0.004357,-0.061429,-0.000793,0.918207,-0.105116,0.381898,0.000616,0.019529,0.014388,36.925564,-12.048920,29.510181
1973.11,1.964261,0.105333,-0.718521,0.001876,-0.067469,0.002879,0.918467,-0.105139,0.381266,0.005086,0.015158,0.022711,36.925564,-12.048920,29.510181
1973.13,1.963679,0.105365,-0.718577,0.004337,-0.051797,0.004143,0.918686,-0.105170,0.380730,0.011169,0.015799,0.028953,36.965252,-12.053162,29.458714
1973.14,1.963129,0.105423,-0.718566,-0.004306,-0.051723,0.004058,0.918890,-0.105228,0.380222,0.014887,0.014881,0.025906,36.965252,-12.053162,29.458714
1973.15,1.962553,0.105475,-0.718552,-0.003070,-0.055357,0.004069,0.919103,-0.105280,0.379691,0.013010,0.010584,0.025201,37.001888,-12.054600,29.412086
1973.16,1.961916,0.105504,-0.718493,-0.005520,-0.062551,-0.000891,0.919343,-0.105308,0.379104,0.014282,0.008674,0.022142,37.001888,-12.054600,29.412086
1973.17,1.961148,0.105574,-0.718416,-0.010469,-0.075817,0.002753,0.919626,-0.105378,0.378395,0.008383,0.010850,0.013359,37.033787,-12.059954,29.369720
1973.18,1.960412,0.105597,-0.718333,-0.007993,-0.063745,0.000317,0.919902,-0.105401,0.377717,0.010075,0.006417,0.021926,37.033787,-12.059954,29.369720
1973.19,1.961279,0.104099,-0.718412,-0.005517,-0.052872,-0.002127,0.919720,-0.103911,0.378574,0.005650,0.010496,0.014523,37.074127,-12.066204,29.316206
1973.20,1.960767,0.104089,-0.718394,0.001885,-0.045697,-0.000817,0.919914,-0.103901,0.378103,0.004799,0.011006,0.013651,37.074127,-12.066204,29.316206
1973.21,1.962139,0.101990,-0.718615,0.001860,-0.038478,0.005341,0.919594,-0.101813,0.379448,0.003517,0.006492,0.008415,37.086723,-11.999191,29.327785
1973.22,1.962696,0.101119,-0.718761,0.004336,-0.028816,0.002899,0.919464,-0.100947,0.379994,-0.000153,0.009165,0.009960,37.086723,-11.999191,29.327785
1973.23,1.963159,0.100441,-0.718857,0.001869,-0.015498,0.001644,0.919351,-0.100272,0.380445,-0.000772,0.007575,0.007952,37.084446,-11.900681,29.370766
1973.24,1.963740,0.099888,-0.718902,-0.005548,-0.016653,0.004034,0.919181,-0.099722,0.381001,-0.000175,0.007300,0.010143,37.071087,-11.827068,29.417328
1973.25,1.964112,0.099279,-0.718901,-0.001820,-0.003350,-0.003325,0.919095,-0.099116,0.381366,-0.000257,0.007975,0.005826,37.071087,-11.827068,29.417328
1973.26,1.964421,0.098601,-0.718896,-0.000573,0.000288,-0.007013,0.919039,-0.098441,0.381675,0.000486,0.008628,0.005181,37.055630,-11.773613,29.458218
1973.27,1.964974,0.098084,-0.718916,0.000660,0.009942,-0.006999,0.918875,-0.097927,0.382204,-0.000616,0.006694,0.007292,37.055630,-11.773613,29.458218
1973.28,1.965510,0.097481,-0.718971,0.001870,0.018349,-0.000820,0.918724,-0.097327,0.382718,-0.000816,0.008994,0.005633,37.043148,-11.719031,29.495659
1973.30,1.966055,0.097029,-0.719010,0.001882,0.024413,-0.004518,0.918556,-0.096877,0.383236,0.000633,0.006758,0.005299,37.043148,-11.719031,29.495659
1973.31,1.966491,0.096676,-0.719005,-0.001832,0.028054,-0.002089,0.918420,-0.096525,0.383650,0.004096,0.005583,0.004366,37.022499,-11.669767,29.541079
1973.32,1.967253,0.096260,-0.719046,0.000621,0.038882,0.001638,0.918165,-0.096112,0.384364,-0.000074,0.007550,0.007100,37.022499,-11.669767,29.541079
1973.33,1.968239,0.095608,-0.719075,-0.005556,0.037723,0.002806,0.917843,-0.095462,0.385294,0.000675,0.008243,0.008398,36.995285,-11.634302,29.589121
1973.34,1.969094,0.095419,-0.719083,-0.006801,0.043760,0.005261,0.917530,-0.095275,0.386086,0.000928,0.005309,0.010185,36.995285,-11.634302,29.589121
1973.35,1.970058,0.095180,-0.719095,-0.006810,0.047371,0.007727,0.917178,-0.095036,0.386979,-0.005633,0.007298,0.008636,36.949669,-11.595510,29.661263
1973.36,1.971224,0.095049,-0.719122,-0.008064,0.052185,0.012648,0.916738,-0.094906,0.388053,-0.006856,0.006985,0.012292,36.949669,-11.595510,29.661263
1973.37,1.972430,0.095033,-0.719212,-0.004378,0.055749,0.017617,0.916270,-0.094890,0.389159,-0.004634,0.004985,0.014223,36.890312,-11.578148,29.741817
1973.38,1.973562,0.095175,-0.719240,-0.008060,0.061861,0.011418,0.915817,-0.095032,0.390190,-0.006561,0.000747,0.009605,36.890312,-11.578148,29.741817
1973.39,1.974647,0.095206,-0.719252,-0.005581,0.061857,0.008976,0.915390,-0.095063,0.391183,-0.005768,0.002488,0.008811,36.819134,-11.582348,29.828259
1973.40,1.975955,0.095133,-0.719244,-0.011751,0.067960,0.007683,0.914884,-0.094990,0.392382,-0.006254,0.005619,0.013914,36.819134,-11.582348,29.828259
1973.41,1.977298,0.095150,-0.719243,-0.008036,0.080032,0.004026,0.914355,-0.095007,0.393610,-0.002658,0.002035,0.013708,36.819134,-11.582348,29.828259
1973.42,1.978635,0.095055,-0.719193,-0.012965,0.082508,0.001511,0.913836,-0.094912,0.394836,-0.000643,0.004198,0.012940,36.748089,-11.580402,29.916489
1973.43,1.979770,0.094891,-0.719072,-0.015424,0.076508,-0.000983,0.913402,-0.094749,0.395879,0.002690,0.006019,0.010478,36.748089,-11.580402,29.916489
1973.44,1.980854,0.094797,-0.718945,-0.017901,0.070477,0.001455,0.912980,-0.094655,0.396873,0.001754,0.004918,0.010217,36.668694,-11.577482,30.014881
1973.45,1.981836,0.094304,-0.718808,-0.017885,0.060841,-0.002251,0.912633,-0.094164,0.397787,-0.003011,0.010500,0.005381,36.668694,-11.577482,30.014881
1973.46,1.982585,0.094052,-0.718625,-0.019124,0.059637,-0.001032,0.912356,-0.093913,0.398480,-0.002902,0.010814,0.002597,36.605164,-11.568918,30.095621
1973.48,1.983498,0.093824,-0.718452,-0.019124,0.059639,-0.001034,0.912012,-0.093687,0.399322,-0.005472,0.009886,0.007585,36.605164,-11.568918,30.095621
1973.49,1.984304,0.093623,-0.718355,-0.010488,0.049889,0.001513,0.911707,-0.093486,0.400064,-0.006006,0.009151,0.006750,36.561481,-11.539139,30.160084
1973.50,1.985080,0.093462,-0.718270,-0.011721,0.045070,0.001497,0.911410,-0.093326,0.400778,-0.004626,0.007343,0.009028,36.561481,-11.539139,30.160084
1973.51,1.985862,0.093310,-0.718222,-0.009304,0.036545,0.001544,0.911109,-0.093175,0.401496,-0.004066,0.007130,0.012353,36.514580,-11.523060,30.222992
1973.52,1.986696,0.093210,-0.718178,-0.009313,0.036532,0.004009,0.910782,-0.093076,0.402260,-0.004517,0.005963,0.014351,36.514580,-11.523060,30.222992
1973.53,1.987319,0.093164,-0.718144,-0.008074,0.018407,0.004013,0.910535,-0.093030,0.402828,-0.005003,0.005032,0.012241,36.470997,-11.510529,30.280331
1973.54,1.987766,0.093089,-0.718096,-0.009285,0.013627,-0.002167,0.910362,-0.092955,0.403238,-0.001365,0.003355,0.011358,36.428505,-11.504896,30.333574
1973.55,1.988133,0.093181,-0.718013,-0.012984,-0.005663,-0.002212,0.910206,-0.093046,0.403569,-0.007389,-0.002184,0.011577,36.428505,-11.504896,30.333574
1973.56,1.988290,0.093313,-0.717950,-0.009268,-0.039501,-0.003422,0.910131,-0.093177,0.403707,-0.010000,-0.004143,0.016276,36.403858,-11.507347,30.362219
1973.57,1.988674,0.093381,-0.717906,-0.012954,-0.070849,-0.005939,0.909970,-0.093245,0.404054,-0.011411,0.001982,0.019622,36.403858,-11.507347,30.362219
1973.58,1.988154,0.093411,-0.717834,-0.009260,-0.109557,-0.000987,0.910178,-0.093275,0.403579,-0.008780,-0.000612,0.020524,36.385513,-11.517857,30.380220
1973.59,1.987302,0.093309,-0.717677,-0.012885,-0.116638,-0.021988,0.910530,-0.093174,0.402807,-0.006767,0.000385,0.016779,36.385513,-11.517857,30.380220
1973.60,1.986428,0.093014,-0.717520,-0.006714,-0.103404,-0.021922,0.910907,-0.092880,0.402023,-0.009051,0.005280,0.009461,36.428349,-11.517544,30.328962
1973.61,1.985624,0.092629,-0.717447,0.003148,-0.093849,-0.018121,0.911262,-0.092497,0.401305,-0.008964,0.008131,0.006624,36.428349,-11.517544,30.328962
1973.62,1.985095,0.092228,-0.717466,0.005589,-0.069753,-0.011922,0.911509,-0.092098,0.400837,-0.008020,0.011058,0.008694,36.486752,-11.489531,30.269327
1973.63,1.984756,0.091967,-0.717454,-0.001830,-0.056417,-0.009524,0.911666,-0.091838,0.400538,-0.002471,0.006221,0.013616,36.486752,-11.489531,30.269327
1973.65,1.984412,0.091861,-0.717376,-0.011734,-0.056377,-0.002224,0.911813,-0.091732,0.400228,0.002356,0.003841,0.013483,36.519955,-11.459244,30.240749
1973.66,1.983730,0.091755,-0.717191,-0.021591,-0.085254,-0.006035,0.912095,-0.091626,0.399610,0.007446,0.005688,0.010104,36.519955,-11.459244,30.240749
1973.67,1.983003,0.091682,-0.716940,-0.029008,-0.083996,-0.003642,0.912391,-0.091554,0.398949,0.018090,0.004578,0.017829,36.553684,-11.452955,30.202354
1973.68,1.981914,0.091565,-0.716586,-0.030200,-0.092371,-0.014756,0.912835,-0.091437,0.397960,0.021171,0.004019,0.005589,36.553684,-11.452955,30.202354
1973.69,1.980352,0.091414,-0.716087,-0.036352,-0.088659,-0.020982,0.913468,-0.091287,0.396540,0.023422,-0.000434,-0.007166,36.553684,-11.452955,30.202354
1973.70,1.978882,0.091365,-0.715599,-0.035118,-0.085049,-0.020968,0.914054,-0.091238,0.395198,0.020044,-0.001642,-0.016719,36.611557,-11.452115,30.132496
1973.71,1.977561,0.091396,-0.715199,-0.030207,-0.087555,-0.013521,0.914572,-0.091269,0.393989,0.017984,-0.003549,-0.010581,36.611557,-11.452115,30.132496
1973.72,1.976304,0.091385,-0.714966,-0.020448,-0.084220,0.018637,0.915068,-0.091258,0.392840,0.008592,0.008158,-0.013598,36.706585,-11.455785,30.015261
1973.73,1.975236,0.091891,-0.715062,-0.014453,-0.099075,0.068013,0.915444,-0.091762,0.391843,-0.007333,0.007503,-0.005903,36.706585,-11.455785,30.015261
1973.74,1.974074,0.092868,-0.715274,-0.013310,-0.094410,0.092689,0.915816,-0.092734,0.390744,0.003022,-0.002770,-0.007108,36.784756,-11.464869,29.915930
1973.75,1.973005,0.094031,-0.715615,-0.012123,-0.105376,0.106260,0.916134,-0.093892,0.389722,-0.005993,-0.001246,-0.003568,36.784756,-11.464869,29.915930
1973.76,1.972016,0.095191,-0.715838,-0.013288,-0.069003,0.085303,0.916418,-0.095047,0.388773,0.014628,-0.010818,-0.003687,36.835163,-11.528494,29.829332
1973.77,1.971131,0.096121,-0.716092,-0.000903,-0.064210,0.074332,0.916680,-0.095973,0.387927,0.008125,-0.008321,-0.007663,36.835163,-11.528494,29.829332
1973.78,1.970257,0.096918,-0.716395,0.004067,-0.081115,0.066976,0.916947,-0.096766,0.387097,-0.005067,-0.005636,-0.005215,36.870766,-11.627081,29.746962
1973.79,1.969398,0.097562,-0.716725,0.010261,-0.075092,0.060875,0.917222,-0.097407,0.386285,-0.005036,-0.001546,-0.005975,36.870766,-11.627081,29.746962
1973.80,1.968820,0.098051,-0.717036,0.009103,-0.071326,0.039903,0.917401,-0.097894,0.385736,-0.005856,-0.002325,0.003135,36.903538,-11.698532,29.678234
1973.81,1.968182,0.098244,-0.717254,0.012888,-0.068803,0.017746,0.917630,-0.098086,0.385143,-0.002285,-0.000486,0.003300,36.932846,-11.741875,29.624613
1973.83,1.967758,0.098079,-0.717462,0.015384,-0.063945,0.010374,0.917808,-0.097922,0.384760,-0.012092,0.011252,0.009847,36.932846,-11.741875,29.624613
1973.84,1.967522,0.098004,-0.717677,0.012908,-0.051852,0.011587,0.917905,-0.097847,0.384546,-0.013303,0.007881,0.012197,36.963287,-11.737643,29.588305
1973.85,1.967399,0.097849,-0.717844,0.010449,-0.037313,0.007869,0.917966,-0.097693,0.384439,-0.009687,0.011099,0.013540,36.963287,-11.737643,29.588305
1973.86,1.967425,0.097574,-0.718055,0.014135,-0.014419,0.011613,0.917981,-0.097420,0.384474,-0.002332,0.016106,0.011889,36.975784,-11.722214,29.578802
1973.87,1.967637,0.097321,-0.718226,0.007934,0.009751,0.017726,0.917923,-0.097168,0.384677,0.004090,0.019257,0.009396,36.975784,-11.722214,29.578802
1973.88,1.967931,0.097211,-0.718350,0.004213,0.027876,0.021395,0.917819,-0.097058,0.384951,0.008298,0.013959,0.005720,36.973839,-11.693241,29.592697
1973.89,1.968296,0.097247,-0.718499,0.002950,0.036295,0.028784,0.917676,-0.097094,0.385285,0.010333,0.011950,0.003051,36.973839,-11.693241,29.592697
1973.90,1.968755,0.097298,-0.718597,-0.003225,0.042387,0.028724,0.917494,-0.097145,0.385704,0.013597,0.011284,0.006370,36.954689,-11.686344,29.619329
1973.91,1.969289,0.097430,-0.718691,-0.003227,0.054465,0.028728,0.917276,-0.097276,0.386190,0.017890,0.007432,0.005748,36.954689,-11.686344,29.619329
1973.92,1.970016,0.097497,-0.718793,-0.001988,0.056878,0.027508,0.916989,-0.097342,0.386853,0.015857,0.002280,0.010669,36.922951,-11.692175,29.656586
1973.93,1.970766,0.097759,-0.718887,-0.003215,0.064151,0.025033,0.916675,-0.097603,0.387532,0.011899,-0.001472,0.009426,36.922951,-11.692175,29.656586
1973.94,1.971552,0.098049,-0.718954,-0.005670,0.061781,0.021309,0.916344,-0.097892,0.388241,0.010521,-0.004219,0.010349,36.875248,-11.704595,29.710991
1973.95,1.972245,0.098337,-0.718966,-0.006890,0.053361,0.017594,0.916049,-0.098179,0.388865,0.009687,-0.005505,0.009786,36.875248,-11.704595,29.710991
1973.96,1.972889,0.098607,-0.718929,-0.010564,0.042571,0.010155,0.915774,-0.098447,0.389444,0.003950,-0.006671,0.011572,36.824890,-11.729926,29.763409
1973.97,1.973409,0.098839,-0.718888,-0.008068,0.024473,0.004007,0.915550,-0.098678,0.389911,-0.000877,-0.007905,0.010983,36.824890,-11.729926,29.763409
1973.98,1.973771,0.099083,-0.718802,-0.011741,0.008852,-0.003433,0.915387,-0.098921,0.390233,-0.008176,-0.011522,0.010646,36.824890,-11.729926,29.763409
1974.00,1.973911,0.099296,-0.718702,-0.011740,-0.017725,-0.002211,0.915313,-0.099133,0.390353,-0.011611,-0.009494,0.009641,36.784954,-11.753773,29.803360
1974.01,1.973741,0.099375,-0.718596,-0.006755,-0.043059,-0.013269,0.915372,-0.099211,0.390194,-0.013181,-0.006990,0.007938,36.784954,-11.753773,29.803360
1974.02,1.973413,0.099376,-0.718558,-0.004301,-0.055187,-0.008317,0.915500,-0.099213,0.389894,-0.016391,-0.003143,0.007247,36.765327,-11.776987,29.818409
1974.03,1.973100,0.099273,-0.718506,-0.004301,-0.055185,-0.008317,0.915631,-0.099110,0.389611,-0.020734,0.002232,0.008689,36.765327,-11.776987,29.818409
1974.04,1.973053,0.099122,-0.718493,-0.001822,-0.052772,-0.010758,0.915663,-0.098960,0.389574,-0.020796,0.003440,0.006635,36.779556,-11.782504,29.798679
1974.05,1.972731,0.099016,-0.718449,-0.004320,-0.045550,-0.003381,0.915798,-0.098855,0.389283,-0.020626,0.005379,0.001815,36.779556,-11.782504,29.798679
1974.06,1.972366,0.098957,-0.718422,-0.000616,-0.046789,-0.003345,0.915946,-0.098796,0.388951,-0.017661,0.003642,-0.000340,36.793125,-11.771788,29.786160
1974.07,1.971870,0.098863,-0.718468,0.005546,-0.055319,0.000412,0.916147,-0.098702,0.388501,-0.011408,0.004891,-0.000454,36.793125,-11.771788,29.786160
1974.08,1.971288,0.098717,-0.718512,0.006805,-0.061330,-0.005744,0.916386,-0.098557,0.387973,-0.005574,0.005555,-0.000064,36.815495,-11.765191,29.761112
1974.09,1.970678,0.098456,-0.718559,0.008036,-0.063763,-0.004501,0.916646,-0.098297,0.387424,0.001017,0.009384,0.005032,36.815495,-11.765191,29.761112
1974.10,1.969972,0.098197,-0.718639,0.008038,-0.074632,-0.004507,0.916943,-0.098039,0.386786,0.007801,0.010759,0.006143,36.850018,-11.753097,29.723143
1974.11,1.969310,0.097890,-0.718704,0.006797,-0.061344,-0.003282,0.917226,-0.097733,0.386191,0.011896,0.012299,0.007516,36.894520,-11.727770,29.677908
1974.12,1.968753,0.097681,-0.718683,-0.003086,-0.052812,-0.002144,0.917460,-0.097526,0.385688,0.009206,0.009742,0.006066,36.894520,-11.727770,29.677908
1974.13,1.968253,0.097538,-0.718627,-0.005561,-0.046760,-0.000933,0.917666,-0.097383,0.385235,0.010313,0.007142,0.005405,36.936153,-11.703701,29.635592
1974.14,1.967795,0.097489,-0.718528,-0.011740,-0.040675,0.000241,0.917847,-0.097335,0.384817,0.008560,0.004058,0.004237,36.936153,-11.703701,29.635592
1974.15,1.967390,0.097500,-0.718448,-0.009275,-0.043120,0.001497,0.918001,-0.097346,0.384444,0.002577,-0.000448,0.001267,36.966850,-11.696964,29.599958
1974.17,1.966900,0.097467,-0.718382,-0.006800,-0.044341,0.000288,0.918193,-0.097313,0.383995,0.006871,0.002617,0.004707,36.966850,-11.696964,29.599958
1974.18,1.966582,0.097487,-0.718331,-0.005573,-0.031074,0.001539,0.918313,-0.097333,0.383702,0.005927,0.000088,0.006144,36.993816,-11.697843,29.565895
1974.19,1.966313,0.097567,-0.718303,-0.004344,-0.026261,0.002787,0.918409,-0.097412,0.383452,0.005694,-0.002304,0.003312,36.993816,-11.697843,29.565895
1974.20,1.966026,0.097664,-0.718266,-0.004366,-0.027507,0.008952,0.918510,-0.097509,0.383186,0.009545,-0.001002,0.004693,37.010212,-11.703424,29.543163
1974.21,1.965651,0.097787,-0.718222,-0.008068,-0.035929,0.008912,0.918643,-0.097631,0.382836,0.007566,-0.001704,0.002372,37.010212,-11.703424,29.543163
1974.22,1.965265,0.097890,-0.718177,-0.008064,-0.035921,0.007679,0.918781,-0.097734,0.382478,0.006115,-0.001189,0.003554,37.027504,-11.714483,29.517097
1974.23,1.964868,0.097986,-0.718113,-0.005572,-0.034697,0.001539,0.918924,-0.097829,0.382109,0.003698,-0.002574,0.000459,37.027504,-11.714483,29.517097
1974.24,1.964509,0.098038,-0.718092,-0.004338,-0.031084,0.001553,0.919057,-0.097881,0.381777,0.003932,-0.001897,0.000257,37.027504,-11.714483,29.517097
1974.25,1.964205,0.098095,-0.718026,-0.005580,-0.021419,0.002778,0.919167,-0.097938,0.381496,0.006065,-0.000512,-0.000027,37.048630,-11.724957,29.486412
1974.26,1.964116,0.098108,-0.718034,-0.000650,-0.002146,0.004069,0.919200,-0.097950,0.381413,0.001927,0.001637,-0.000173,37.048630,-11.724957,29.486412
1974.27,1.964103,0.098140,-0.718043,-0.001905,0.007495,0.008993,0.919203,-0.097983,0.381400,0.003558,0.002402,-0.003715,37.067112,-11.731062,29.460747
1974.28,1.964044,0.098035,-0.718053,0.000572,0.018358,0.006555,0.919234,-0.097878,0.381350,0.004075,0.004494,-0.005755,37.067112,-11.731062,29.460747
1974.29,1.964207,0.098040,-0.718061,-0.001908,0.024402,0.008999,0.919172,-0.097883,0.381500,0.006533,0.004636,-0.002380,37.069626,-11.732885,29.456863
1974.30,1.964454,0.098026,-0.718109,0.001791,0.029193,0.010270,0.919079,-0.097869,0.381727,0.007389,0.005920,-0.001066,37.069626,-11.732885,29.456863
1974.31,1.964757,0.098054,-0.718147,-0.001919,0.035256,0.011469,0.918960,-0.097897,0.382005,0.008301,0.004040,-0.000276,37.067604,-11.728076,29.461319
1974.32,1.965175,0.098159,-0.718170,-0.001919,0.037671,0.011470,0.918791,-0.098001,0.382385,0.008257,0.000223,0.003830,37.067604,-11.728076,29.461319
1974.33,1.965627,0.098216,-0.718204,-0.000675,0.035261,0.009015,0.918613,-0.098058,0.382798,0.007031,0.000814,0.006668,37.051102,-11.727610,29.482258
1974.35,1.966013,0.098306,-0.718185,-0.009307,0.029313,0.006461,0.918457,-0.098147,0.383149,0.005554,-0.000485,0.006621,37.051102,-11.727610,29.482258
1974.36,1.966421,0.098359,-0.718151,-0.005584,0.024482,0.001563,0.918296,-0.098201,0.383522,0.001183,-0.001363,0.009666,37.023613,-11.734259,29.514122
1974.37,1.966774,0.098454,-0.718129,-0.006827,0.020855,0.004016,0.918152,-0.098295,0.383843,-0.000961,-0.002626,0.008034,36.998684,-11.741470,29.542507
1974.38,1.967218,0.098504,-0.718084,-0.010526,0.023311,0.002747,0.917977,-0.098345,0.384248,-0.003624,0.000948,0.011229,36.998684,-11.741470,29.542507
1974.39,1.967674,0.098528,-0.718026,-0.008044,0.025730,-0.000926,0.917799,-0.098369,0.384666,-0.005141,0.000850,0.010170,36.973663,-11.748940,29.570845
1974.40,1.968281,0.098549,-0.717963,-0.009287,0.024520,0.001527,0.917564,-0.098390,0.385222,-0.006431,0.000077,0.010011,36.973663,-11.748940,29.570845
1974.41,1.968632,0.098586,-0.717899,-0.008046,0.017271,0.000304,0.917425,-0.098427,0.385543,-0.005911,0.000251,0.006684,36.941936,-11.752542,29.609043
1974.42,1.968883,0.098568,-0.717850,-0.005571,0.013635,-0.000907,0.917330,-0.098408,0.385773,-0.004855,0.003087,0.004653,36.941936,-11.752542,29.609043
1974.43,1.969052,0.098514,-0.717858,0.000605,0.001505,-0.000851,0.917270,-0.098355,0.385930,-0.005527,0.003033,0.005030,36.924080,-11.754852,29.630394
1974.44,1.969154,0.098439,-0.717867,-0.001863,-0.002096,-0.000877,0.917237,-0.098280,0.386027,-0.002488,0.004392,0.005345,36.924080,-11.754852,29.630394
1974.45,1.969136,0.098385,-0.717792,-0.006799,-0.014130,-0.000932,0.917249,-0.098226,0.386012,-0.000791,0.004110,0.007084,36.917408,-11.748766,29.641115
1974.46,1.969083,0.098327,-0.717793,-0.000640,-0.011791,0.002829,0.917275,-0.098169,0.385966,-0.000557,0.004678,0.003774,36.917408,-11.748766,29.641115
1974.47,1.969078,0.098260,-0.717748,-0.008040,-0.005672,0.000292,0.917283,-0.098102,0.385965,0.003631,0.005496,0.006003,36.920853,-11.744645,29.638462
1974.48,1.969101,0.098212,-0.717698,-0.001883,0.008745,0.004058,0.917278,-0.098054,0.385987,0.005100,0.005632,0.001601,36.920853,-11.744645,29.638462
1974.49,1.969210,0.098167,-0.717693,-0.001884,0.014783,0.004060,0.917240,-0.098009,0.386089,0.003200,0.005388,-0.001094,36.921703,-11.740628,29.638988
1974.50,1.969386,0.098207,-0.717651,-0.004360,0.024458,0.005273,0.917168,-0.098049,0.386249,0.007774,0.001125,-0.001316,36.921703,-11.740628,29.638988
1974.52,1.969532,0.098258,-0.717620,-0.005600,0.028083,0.006495,0.917108,-0.098100,0.386381,0.005408,-0.001174,-0.001646,36.913380,-11.741008,29.649202
1974.53,1.969764,0.098348,-0.717587,-0.004411,0.023199,0.004064,0.917010,-0.098189,0.386590,0.004529,-0.001802,-0.000252,36.913380,-11.741008,29.649202
1974.54,1.969986,0.098428,-0.717576,-0.001949,0.018331,0.006553,0.916917,-0.098270,0.386791,0.004989,-0.000974,0.003056,36.913380,-11.741008,29.649202
1974.55,1.970177,0.098426,-0.717510,-0.008095,0.014808,-0.000908,0.916843,-0.098267,0.386966,0.008602,0.001618,0.006223,36.900776,-11.748240,29.662027
1974.56,1.970364,0.098418,-0.717445,-0.006853,0.003936,-0.002134,0.916771,-0.098260,0.387138,0.002952,0.000298,0.008721,36.900776,-11.748240,29.662027
1974.57,1.970480,0.098431,-0.717360,-0.009312,0.001558,-0.004625,0.916725,-0.098272,0.387243,0.000755,-0.002299,0.006922,36.887798,-11.752781,29.676367
1974.58,1.970530,0.098448,-0.717225,-0.009279,-0.008049,-0.013260,0.916704,-0.098289,0.387288,-0.007342,-0.005318,0.004679,36.887798,-11.752781,29.676367
1974.59,1.970304,0.098446,-0.717055,-0.011738,-0.034590,-0.014528,0.916792,-0.098287,0.387082,-0.012434,-0.004832,0.000385,36.879002,-11.754946,29.686440
1974.60,1.969774,0.098297,-0.716914,-0.006784,-0.062395,-0.016958,0.917010,-0.098139,0.386602,-0.007693,0.001444,0.002757,36.879002,-11.754946,29.686440
1974.61,1.969200,0.098090,-0.716830,-0.000617,-0.072124,-0.014435,0.917251,-0.097932,0.386083,-0.008041,0.004442,0.009166,36.884533,-11.759596,29.677727
1974.62,1.968655,0.097816,-0.716811,-0.000623,-0.064884,-0.013199,0.917486,-0.097660,0.385593,-0.004385,0.008168,0.010129,36.884533,-11.759596,29.677727
1974.63,1.968444,0.097480,-0.716764,-0.008066,-0.044341,-0.004634,0.917598,-0.097326,0.385412,-0.000926,0.008337,0.008845,36.921516,-11.746269,29.636992
1974.64,1.968142,0.097464,-0.716615,-0.015495,-0.028607,0.000232,0.917715,-0.097310,0.385135,-0.003165,0.004003,0.001171,36.921516,-11.746269,29.636992
1974.65,1.967900,0.097480,-0.716448,-0.015485,-0.012883,-0.003461,0.917807,-0.097326,0.384913,-0.003867,0.002096,-0.004862,36.950623,-11.719379,29.611347
1974.66,1.967615,0.097506,-0.716246,-0.017954,-0.015278,-0.003486,0.917914,-0.097352,0.384651,-0.002402,0.002213,-0.007636,36.967236,-11.723475,29.588987
1974.67,1.967410,0.097506,-0.716032,-0.021648,-0.018854,-0.005991,0.917993,-0.097352,0.384462,0.005820,0.001115,0.004027,36.967236,-11.723475,29.588987
1974.68,1.967366,0.097409,-0.715830,-0.015465,0.002855,-0.009619,0.918019,-0.097255,0.384425,0.009746,0.004176,0.001714,36.982121,-11.730032,29.567776
1974.70,1.967314,0.097349,-0.715608,-0.020428,0.007690,-0.003501,0.918044,-0.097195,0.384380,0.009217,0.003338,-0.002804,36.982121,-11.730032,29.567776
1974.71,1.967234,0.097346,-0.715369,-0.019159,-0.000721,-0.012124,0.918075,-0.097192,0.384306,0.005860,-0.001624,0.001359,36.987354,-11.728333,29.561905
1974.72,1.967223,0.097359,-0.715074,-0.025345,-0.004314,-0.008487,0.918078,-0.097205,0.384296,-0.002459,-0.002038,-0.000644,36.987354,-11.728333,29.561905
1974.73,1.967067,0.097393,-0.714848,-0.022910,-0.012851,0.001398,0.918135,-0.097239,0.384151,-0.002486,0.003657,-0.000301,36.990814,-11.735689,29.554653
1974.74,1.967097,0.097282,-0.714653,-0.021679,0.006462,0.001417,0.918134,-0.097129,0.384183,0.007678,0.011649,0.004901,36.990814,-11.735689,29.554653
1974.75,1.967116,0.097340,-0.714451,-0.019234,0.031771,0.006385,0.918121,-0.097186,0.384199,0.017945,-0.002896,-0.005079,36.996056,-11.737654,29.547312
1974.76,1.967312,0.097559,-0.714263,-0.025424,0.025754,0.011253,0.918026,-0.097404,0.384371,0.009846,-0.002495,-0.002504,36.996056,-11.737654,29.547312
1974.77,1.967436,0.097862,-0.713974,-0.030330,0.021020,0.002572,0.917951,-0.097706,0.384473,0.011736,-0.008510,-0.000363,36.987335,-11.755271,29.551229
1974.78,1.967695,0.097938,-0.713675,-0.025344,0.033139,-0.010937,0.917845,-0.097781,0.384708,0.002169,-0.003186,-0.000904,36.987335,-11.755271,29.551229
1974.79,1.968292,0.097882,-0.713400,-0.024087,0.054915,-0.018313,0.917620,-0.097725,0.385258,-0.002032,-0.000923,0.006237,36.972862,-11.780110,29.559444
1974.80,1.969242,0.097726,-0.713182,-0.016691,0.070538,-0.015767,0.917268,-0.097571,0.386135,-0.006043,0.005438,0.013417,36.972862,-11.780110,29.559444
1974.81,1.970292,0.097574,-0.712977,-0.015461,0.091060,-0.015746,0.916875,-0.097419,0.387103,0.001322,0.002891,0.009549,36.930218,-11.776856,29.614002
1974.82,1.971423,0.097481,-0.712769,-0.019194,0.099501,-0.008381,0.916445,-0.097327,0.388144,0.005567,0.002905,0.009897,36.930218,-11.776856,29.614002
1974.83,1.972184,0.097379,-0.712595,-0.017997,0.069219,0.003947,0.916159,-0.097225,0.388845,0.007379,0.010769,-0.002614,36.930218,-11.776856,29.614002
1974.84,1.972869,0.097546,-0.712465,-0.025506,0.058236,0.032228,0.915877,-0.097391,0.389466,0.006883,0.010370,0.005416,36.868881,-11.771025,29.692642
1974.85,1.973501,0.097908,-0.712424,-0.026807,0.052093,0.050708,0.915599,-0.097752,0.390031,0.000219,0.013508,0.005447,36.868881,-11.771025,29.692642
1974.87,1.974277,0.098345,-0.712444,-0.023114,0.043585,0.054439,0.915256,-0.098186,0.390724,-0.002598,0.003551,0.007591,36.825733,-11.777901,29.743420
1974.88,1.974836,0.098894,-0.712571,-0.014497,0.019303,0.063145,0.914988,-0.098732,0.391215,-0.015497,0.007058,0.010793,36.825733,-11.777901,29.743420
1974.89,1.975090,0.099643,-0.712757,-0.019486,-0.018192,0.079109,0.914820,-0.099478,0.391418,-0.017985,0.006247,0.015167,36.775188,-11.814531,29.791382
1974.90,1.975209,0.100442,-0.712909,-0.016983,-0.007280,0.069274,0.914700,-0.100273,0.391496,-0.005887,-0.001168,0.013381,36.775188,-11.814531,29.791382
1974.91,1.975207,0.101204,-0.712996,-0.021904,-0.022914,0.065520,0.914630,-0.101031,0.391464,-0.008411,-0.000898,0.008545,36.736286,-11.869579,29.817493
1974.92,1.974908,0.102002,-0.713155,-0.013291,-0.053243,0.075457,0.914673,-0.101825,0.391158,-0.011246,-0.000256,0.005906,36.736286,-11.869579,29.817493
1974.93,1.974394,0.102867,-0.713446,-0.005901,-0.075083,0.081686,0.914793,-0.102686,0.390653,-0.014509,-0.001166,0.007418,36.715302,-11.937504,29.816223
1974.94,1.973717,0.103629,-0.713768,0.002782,-0.076295,0.070675,0.914984,-0.103444,0.390004,-0.005072,-0.002620,0.004894,36.715302,-11.937504,29.816223
1974.95,1.972943,0.104242,-0.714044,0.004100,-0.083413,0.048490,0.915228,-0.104053,0.389270,-0.001348,-0.004604,0.005841,36.720497,-12.007330,29.781763
1974.96,1.972160,0.104514,-0.714249,0.014092,-0.072427,0.016534,0.915506,-0.104324,0.388542,0.011313,-0.006745,0.005394,36.747471,-12.062130,29.726295
1974.97,1.971331,0.104459,-0.714329,0.009220,-0.067439,-0.002008,0.915833,-0.104269,0.387785,0.015716,-0.001550,0.000520,36.747471,-12.062130,29.726295
1974.98,1.970541,0.104361,-0.714420,0.006733,-0.068656,0.002898,0.916149,-0.104172,0.387065,0.003407,0.004395,-0.001659,36.792480,-12.068320,29.668051
1974.99,1.969753,0.104293,-0.714511,0.007954,-0.067483,0.006610,0.916460,-0.104104,0.386346,0.000929,0.001931,-0.001443,36.792480,-12.068320,29.668051
1975.00,1.969117,0.104313,-0.714588,0.003012,-0.068655,0.007793,0.916704,-0.104124,0.385763,-0.005082,0.002912,0.004298,36.840816,-12.058427,29.612040
1975.01,1.968522,0.104318,-0.714637,0.002983,-0.068678,0.002874,0.916932,-0.104129,0.385217,-0.009813,0.001559,0.004722,36.840816,-12.058427,29.612040
1975.02,1.967906,0.104348,-0.714616,-0.005650,-0.071003,0.000321,0.917167,-0.104159,0.384651,-0.010413,0.000994,0.005669,36.876762,-12.057926,29.567467
1975.04,1.967195,0.104369,-0.714569,-0.005658,-0.074641,0.002786,0.917438,-0.104180,0.383997,-0.012287,0.002419,0.000448,36.876762,-12.057926,29.567467
1975.05,1.966453,0.104349,-0.714516,-0.004391,-0.075805,-0.005834,0.917724,-0.104160,0.383318,-0.005539,0.000781,0.004743,36.915516,-12.061129,29.517761
1975.06,1.965745,0.104236,-0.714506,0.001771,-0.066211,-0.003302,0.918007,-0.104047,0.382672,-0.004020,0.003964,-0.001279,36.915516,-12.061129,29.517761
1975.07,1.964965,0.104150,-0.714564,0.009170,-0.067499,-0.000763,0.918313,-0.103962,0.381960,-0.002770,0.003025,-0.005449,36.959854,-12.055882,29.464369
1975.08,1.964183,0.104086,-0.714745,0.019007,-0.070070,0.010431,0.918617,-0.103898,0.381244,0.001945,0.004685,-0.003544,36.959854,-12.055882,29.464369
1975.09,1.963350,0.104097,-0.715015,0.022685,-0.073772,0.017864,0.918934,-0.103909,0.380478,0.004574,0.003720,-0.002991,37.007107,-12.045988,29.409056
1975.10,1.962526,0.104126,-0.715362,0.027606,-0.075053,0.022844,0.919244,-0.103938,0.379720,0.007499,0.003490,0.000544,37.007107,-12.045988,29.409056
1975.11,1.961754,0.104121,-0.715823,0.037445,-0.065539,0.032810,0.919537,-0.103933,0.379010,0.013553,0.006627,0.003711,37.007107,-12.045988,29.409056
1975.12,1.961216,0.104154,-0.716315,0.036212,-0.049820,0.031571,0.919738,-0.103966,0.378514,0.022248,0.005578,0.010112,37.054401,-12.039864,29.351952
1975.13,1.960983,0.104248,-0.716808,0.036181,-0.012419,0.037752,0.919817,-0.104060,0.378296,0.023603,0.005228,0.005447,37.054401,-12.039864,29.351952
1975.14,1.961093,0.104332,-0.717252,0.027531,0.023888,0.037681,0.919767,-0.104143,0.378394,0.026949,0.008471,0.005014,37.091068,-12.028831,29.310135
1975.15,1.961431,0.104488,-0.717629,0.023822,0.048074,0.037654,0.919624,-0.104298,0.378699,0.022453,0.005208,-0.001837,37.091068,-12.028831,29.310135
1975.16,1.961870,0.104710,-0.717908,0.013959,0.066304,0.032632,0.919437,-0.104519,0.379094,0.022656,0.000881,-0.008625,37.091297,-12.024811,29.311497
1975.17,1.962415,0.104907,-0.718147,0.015201,0.072346,0.030181,0.919211,-0.104714,0.379587,0.019723,0.000787,-0.008631,37.091297,-12.024811,29.311497
1975.18,1.963051,0.105085,-0.718406,0.013950,0.071106,0.032605,0.918952,-0.104892,0.380164,0.018655,0.004657,-0.003470,37.063328,-12.033495,29.343294
1975.19,1.963735,0.105303,-0.718649,0.012720,0.068708,0.031358,0.918671,-0.105108,0.380784,0.020080,0.001135,0.003143,37.063328,-12.033495,29.343294
1975.20,1.964492,0.105433,-0.718922,0.011473,0.067488,0.035044,0.918370,-0.105238,0.381473,0.013973,0.007780,0.007137,37.023727,-12.044117,29.388895
1975.22,1.965378,0.105643,-0.719187,0.011468,0.069897,0.036277,0.918011,-0.105447,0.382279,0.013111,0.004479,0.012542,36.976707,-12.053259,29.444294
1975.23,1.966590,0.105860,-0.719446,0.005290,0.074776,0.037451,0.917526,-0.105662,0.383382,0.000779,0.000850,0.013178,36.976707,-12.053259,29.444294
1975.24,1.967598,0.106227,-0.719703,0.008995,0.071122,0.037487,0.917103,-0.106028,0.384292,-0.005268,-0.000997,0.010789,36.909302,-12.065874,29.523594
1975.25,1.968526,0.106579,-0.719955,0.007767,0.059065,0.036236,0.916712,-0.106377,0.385128,-0.005563,-0.001640,0.013935,36.909302,-12.065874,29.523594
1975.26,1.969365,0.106977,-0.720143,0.001604,0.055511,0.033708,0.916349,-0.106773,0.385881,-0.007154,-0.003533,0.009443,36.843296,-12.091936,29.595287
1975.27,1.970138,0.107355,-0.720319,0.000384,0.048300,0.029994,0.916013,-0.107149,0.386573,-0.010648,-0.004240,0.010766,36.843296,-12.091936,29.595287
1975.28,1.970684,0.107710,-0.720363,-0.005746,0.037554,0.018832,0.915767,-0.107502,0.387059,-0.010142,-0.006466,0.002849,36.786335,-12.122494,29.653584
1975.29,1.971067,0.107995,-0.720370,-0.008209,0.027922,0.017570,0.915590,-0.107785,0.387398,-0.008852,-0.003970,0.000831,36.786335,-12.122494,29.653584
1975.30,1.971383,0.108245,-0.720332,-0.010665,0.031590,0.013849,0.915443,-0.108034,0.387676,-0.008384,-0.002959,-0.003628,36.751526,-12.150885,29.685110
1975.31,1.971580,0.108425,-0.720277,-0.009425,0.026755,0.012626,0.915349,-0.108213,0.387849,-0.008503,0.000471,-0.009248,36.751526,-12.150885,29.685110
1975.32,1.971935,0.108573,-0.720234,-0.011907,0.042461,0.015075,0.915196,-0.108360,0.388167,-0.010625,0.004112,-0.008834,36.731625,-12.171638,29.701237
1975.33,1.972474,0.108812,-0.720149,-0.015619,0.060602,0.016279,0.914963,-0.108598,0.388651,-0.012223,0.000764,-0.009088,36.731625,-12.171638,29.701237
1975.34,1.973348,0.109105,-0.720082,-0.018095,0.070278,0.017493,0.914594,-0.108888,0.389438,-0.019711,0.000963,0.000012,36.700920,-12.190853,29.731293
1975.35,1.974273,0.109413,-0.719994,-0.018077,0.072696,0.014992,0.914202,-0.109195,0.390270,-0.018420,-0.003628,0.003818,36.700920,-12.190853,29.731293
1975.36,1.975187,0.109569,-0.719888,-0.015550,0.061899,0.000215,0.913829,-0.109350,0.391099,-0.013591,-0.002329,0.008757,36.700920,-12.190853,29.731293
1975.37,1.975982,0.109655,-0.719692,-0.020450,0.049927,-0.009703,0.913510,-0.109436,0.391821,-0.010418,-0.004029,0.012659,36.640862,-12.220158,29.793280
1975.39,1.976595,0.109569,-0.719424,-0.017915,0.037938,-0.026945,0.913278,-0.109350,0.392385,-0.002191,-0.003962,0.013224,36.640862,-12.220158,29.793280
1975.40,1.977044,0.109218,-0.719095,-0.017849,0.029593,-0.044212,0.913137,-0.109001,0.392810,-0.000081,0.002129,0.010861,36.587639,-12.235052,29.852516
1975.41,1.977501,0.108663,-0.718718,-0.020287,0.032085,-0.052867,0.913013,-0.108449,0.393252,0.005460,0.006963,0.013670,36.587639,-12.235052,29.852516
1975.42,1.977937,0.108067,-0.718279,-0.023999,0.029687,-0.050440,0.912900,-0.107857,0.393675,0.006991,0.010963,0.013735,36.561733,-12.222929,29.889193
1975.43,1.978414,0.107495,-0.717849,-0.027725,0.029682,-0.044313,0.912769,-0.107288,0.394135,0.004742,0.013492,0.015487,36.561733,-12.222929,29.889193
1975.44,1.978842,0.106986,-0.717449,-0.028992,0.018762,-0.034467,0.912650,-0.106782,0.394548,0.005883,0.014466,0.017257,36.549210,-12.181196,29.921532
1975.45,1.979174,0.106635,-0.717101,-0.029072,0.012586,-0.012276,0.912553,-0.106433,0.394866,0.009200,0.016345,0.018953,36.549210,-12.181196,29.921532
1975.46,1.979492,0.106202,-0.716853,-0.030363,-0.010457,0.004961,0.912470,-0.106002,0.395173,0.013265,0.012298,0.019347,36.535477,-12.142853,29.953867
1975.47,1.979670,0.106231,-0.716635,-0.029168,0.010004,0.014846,0.912397,-0.106032,0.395335,0.007723,0.011320,0.012380,36.535477,-12.142853,29.953867
1975.48,1.979775,0.106571,-0.716465,-0.031699,0.001463,0.032080,0.912322,-0.106370,0.395416,0.003083,0.003678,0.005997,36.525703,-12.114902,29.977100
1975.49,1.979476,0.107007,-0.716405,-0.019370,-0.042168,0.039581,0.912398,-0.106803,0.395125,0.011827,0.000907,0.007158,36.525703,-12.114902,29.977100
1975.50,1.979130,0.107400,-0.716396,-0.011916,-0.026447,0.026099,0.912495,-0.107193,0.394793,0.021159,-0.005127,0.009321,36.513725,-12.136721,29.982864
1975.51,1.978673,0.107737,-0.716387,-0.008198,-0.026457,0.022437,0.912643,-0.107529,0.394361,0.018967,-0.006759,-0.006620,36.523907,-12.175236,29.954836
1975.52,1.978034,0.108104,-0.716440,-0.003234,-0.049481,0.024879,0.912858,-0.107893,0.393762,0.007888,-0.007509,-0.007242,36.523907,-12.175236,29.954836
1975.53,1.977277,0.108518,-0.716517,0.000486,-0.063983,0.021212,0.913115,-0.108305,0.393054,0.001772,-0.011202,-0.006533,36.548779,-12.206648,29.911690
1975.54,1.976550,0.108921,-0.716596,0.000514,-0.068768,0.013813,0.913360,-0.108706,0.392372,-0.011291,-0.013304,-0.005791,36.548779,-12.206648,29.911690
1975.55,1.975805,0.109223,-0.716688,0.006723,-0.071175,0.004010,0.913622,-0.109006,0.391679,-0.014086,-0.014087,-0.003938,36.583706,-12.241716,29.854599
1975.57,1.975098,0.109388,-0.716786,0.012924,-0.073597,-0.003326,0.913882,-0.109170,0.391026,-0.019031,-0.011817,-0.004490,36.583706,-12.241716,29.854599
1975.58,1.974551,0.109455,-0.716869,0.014206,-0.066275,-0.016872,0.914090,-0.109236,0.390522,-0.010739,-0.004533,0.002071,36.621456,-12.260464,29.800573
1975.59,1.973937,0.109148,-0.716924,0.014247,-0.064997,-0.027969,0.914360,-0.108932,0.389975,0.003746,0.000014,0.007166,36.621456,-12.260464,29.800573
1975.60,1.973514,0.108735,-0.716905,0.006816,-0.043224,-0.023101,0.914566,-0.108521,0.389605,0.003281,0.007355,0.007184,36.658520,-12.247809,29.760181
1975.61,1.973234,0.108337,-0.716890,0.006799,-0.023923,-0.019395,0.914715,-0.108125,0.389367,0.008793,0.008287,0.006141,36.658520,-12.247809,29.760181
1975.62,1.973161,0.108005,-0.716842,-0.000643,-0.010628,-0.010832,0.914776,-0.107795,0.389313,0.006321,0.012428,0.007903,36.688602,-12.211422,29.738054
1975.63,1.973189,0.107795,-0.716838,0.000562,0.002601,-0.003416,0.914786,-0.107587,0.389348,0.001092,0.009991,0.001369,36.688602,-12.211422,29.738054
1975.64,1.973147,0.107626,-0.716773,-0.005623,-0.002200,0.000218,0.914819,-0.107419,0.389317,-0.000070,0.010571,-0.000355,36.696117,-12.187480,29.738605
1975.65,1.973083,0.107523,-0.716721,-0.001918,-0.005856,0.000253,0.914854,-0.107316,0.389263,-0.000853,0.007570,-0.001354,36.696117,-12.187480,29.738605
1975.66,1.972885,0.107461,-0.716708,-0.004398,-0.019143,0.003921,0.914937,-0.107255,0.389084,-0.000402,0.006608,-0.001251,36.696117,-12.187480,29.738605
1975.67,1.972674,0.107433,-0.716704,-0.004410,-0.021581,0.007619,0.915022,-0.107226,0.388892,0.006013,0.005816,0.003137,36.702496,-12.176653,29.735170
1975.68,1.972439,0.107439,-0.716685,-0.004404,-0.027612,0.006383,0.915113,-0.107233,0.388677,0.008013,0.003778,0.006053,36.702496,-12.176653,29.735170
1975.69,1.972145,0.107455,-0.716692,-0.000643,-0.030047,0.003861,0.915226,-0.107248,0.388407,0.004864,0.001108,0.004400,36.715710,-12.172756,29.720446
1975.70,1.971949,0.107496,-0.716688,-0.004338,-0.027583,0.001360,0.915298,-0.107289,0.388226,-0.000640,-0.002483,0.004413,36.715710,-12.172756,29.720446
1975.71,1.971714,0.107585,-0.716672,-0.003103,-0.027594,0.001372,0.915380,-0.107377,0.388007,0.000574,-0.002822,0.004373,36.731201,-12.173915,29.700825
1975.72,1.971582,0.107577,-0.716605,-0.004305,-0.011820,-0.008497,0.915432,-0.107370,0.387887,-0.001293,-0.001090,0.000877,36.731201,-12.173915,29.700825
1975.74,1.971575,0.107515,-0.716560,-0.004321,0.000234,-0.004793,0.915441,-0.107308,0.387882,-0.000310,0.002053,0.001690,36.742565,-12.180084,29.684231
1975.75,1.971720,0.107489,-0.716517,-0.004334,0.015919,-0.002320,0.915387,-0.107282,0.388017,0.003940,-0.000262,0.002471,36.742565,-12.180084,29.684231
1975.76,1.971895,0.107471,-0.716465,-0.003094,0.014709,-0.003541,0.915321,-0.107264,0.388177,0.005791,-0.000295,0.003989,36.747646,-12.178341,29.678659
1975.77,1.972026,0.107412,-0.716438,-0.001872,0.012260,0.000169,0.915276,-0.107206,0.388299,0.006690,0.003278,0.002493,36.747646,-12.178341,29.678659
1975.78,1.972109,0.107374,-0.716393,-0.004340,0.005035,0.000141,0.915248,-0.107168,0.388377,0.007909,0.002767,0.005193,36.738785,-12.177591,29.689938
1975.79,1.972105,0.107321,-0.716355,-0.004334,-0.002204,-0.001095,0.915254,-0.107115,0.388376,0.007796,0.003065,0.003638,36.733635,-12.174109,29.697735
1975.80,1.972102,0.107295,-0.716289,-0.006803,-0.000975,-0.001119,0.915258,-0.107089,0.388375,0.005595,0.001452,0.003822,36.733635,-12.174109,29.697735
1975.81,1.972127,0.107236,-0.716179,-0.011737,-0.002132,-0.002402,0.915254,-0.107030,0.388400,0.005187,0.003820,0.005353,36.734871,-12.171848,29.697134
1975.82,1.972155,0.107130,-0.716112,-0.006803,0.000234,-0.001119,0.915254,-0.106925,0.388429,0.003844,0.002845,0.003432,36.734871,-12.171848,29.697134
1975.83,1.972240,0.107134,-0.716014,-0.008030,0.007507,-0.003595,0.915220,-0.106930,0.388507,0.004137,0.000088,0.003644,36.735439,-12.166634,29.698566
1975.84,1.972315,0.107120,-0.715959,-0.005578,0.007455,0.001362,0.915192,-0.106915,0.388577,0.000732,0.002774,0.002140,36.735439,-12.166634,29.698566
1975.85,1.972437,0.107120,-0.715901,-0.005583,0.008655,0.002596,0.915145,-0.106915,0.388689,0.004167,0.002011,0.003737,36.731014,-12.168170,29.703407
1975.86,1.972594,0.107129,-0.715832,-0.008005,0.012316,0.002461,0.915083,-0.106924,0.388831,0.004411,0.002600,0.004906,36.731014,-12.168170,29.703407
1975.87,1.972771,0.107096,-0.715806,-0.004302,0.017115,0.002500,0.915018,-0.106892,0.388995,0.005545,0.003834,0.002149,36.722836,-12.170206,29.712687
1975.88,1.972991,0.107082,-0.715772,-0.004293,0.019546,0.000035,0.914933,-0.106878,0.389197,0.005522,0.002096,0.003671,36.722836,-12.170206,29.712687
1975.89,1.973267,0.107093,-0.715739,-0.004303,0.021946,0.002502,0.914825,-0.106889,0.389448,0.002793,0.001695,0.004076,36.711655,-12.168874,29.727045
1975.91,1.973511,0.107146,-0.715701,-0.006776,0.019545,0.003709,0.914725,-0.106941,0.389670,0.002420,0.000648,0.003580,36.711655,-12.168874,29.727045
1975.92,1.973762,0.107158,-0.715665,-0.008009,0.015933,0.003695,0.914626,-0.106953,0.389899,-0.000365,0.002949,0.005426,36.695591,-12.172665,29.745327
1975.93,1.974072,0.107229,-0.715611,-0.008019,0.020749,0.006164,0.914498,-0.107024,0.390179,-0.000572,0.001570,0.006351,36.695591,-12.172665,29.745327
1975.94,1.974501,0.107300,-0.715585,-0.009266,0.017114,0.009849,0.914323,-0.107095,0.390569,-0.004274,0.002358,0.005611,36.678101,-12.177608,29.764866
1975.95,1.974752,0.107414,-0.715499,-0.012947,0.015978,0.003647,0.914214,-0.107208,0.390794,-0.004241,-0.000718,0.003356,36.678101,-12.177608,29.764866
1975.96,1.974992,0.107495,-0.715416,-0.010464,0.013565,-0.000029,0.914112,-0.107288,0.391009,-0.006809,-0.001583,0.003995,36.678101,-12.177608,29.764866
1975.97,1.975150,0.107528,-0.715350,-0.006763,0.005072,0.001237,0.914047,-0.107321,0.391152,-0.008408,0.001135,0.002479,36.655952,-12.187465,29.788105
1975.98,1.975208,0.107560,-0.715300,-0.004264,-0.004565,-0.006140,0.914021,-0.107353,0.391204,-0.008336,-0.001824,0.003068,36.655952,-12.187465,29.788105
1975.99,1.975132,0.107486,-0.715228,-0.004247,-0.017826,-0.009845,0.914058,-0.107279,0.391138,-0.006328,0.001460,0.002860,36.643063,-12.194580,29.801050
1976.00,1.975042,0.107413,-0.715147,-0.006730,-0.020243,-0.006172,0.914101,-0.107207,0.391059,-0.006279,0.001585,0.005655,36.643063,-12.194580,29.801050
1976.01,1.974869,0.107340,-0.715106,-0.003024,-0.026313,-0.006138,0.914175,-0.107134,0.390904,-0.002982,0.002428,0.004726,36.644260,-12.194239,29.799717
1976.02,1.974679,0.107232,-0.715087,-0.000555,-0.022710,-0.006112,0.914260,-0.107027,0.390735,-0.002837,0.003069,0.002606,36.644260,-12.194239,29.799717
1976.03,1.974471,0.107123,-0.715052,-0.004227,-0.026328,-0.001350,0.914352,-0.106919,0.390549,0.000610,0.005310,0.005127,36.653908,-12.189165,29.789921
1976.04,1.974240,0.107028,-0.715006,-0.001748,-0.028749,-0.003793,0.914452,-0.106824,0.390341,0.002342,0.004041,0.004846,36.653908,-12.189165,29.789921
1976.05,1.974006,0.106861,-0.714953,-0.006707,-0.017867,0.001094,0.914560,-0.106658,0.390135,0.007651,0.004531,0.003191,36.668289,-12.180042,29.775955
1976.06,1.973788,0.106847,-0.714913,-0.004241,-0.020312,0.002350,0.914646,-0.106644,0.389936,0.006680,0.002366,0.003497,36.668289,-12.180042,29.775955
1976.07,1.973597,0.106813,-0.714855,-0.006698,-0.016644,-0.001372,0.914724,-0.106610,0.389763,0.006587,0.002407,0.001961,36.685219,-12.169389,29.759453
1976.09,1.973405,0.106804,-0.714804,-0.009172,-0.011800,-0.000161,0.914799,-0.106601,0.389588,0.006664,0.001438,-0.000321,36.698074,-12.168455,29.743980
1976.10,1.973276,0.106822,-0.714692,-0.012891,-0.006960,0.003503,0.914848,-0.106619,0.389468,0.006066,0.001928,0.000974,36.698074,-12.168455,29.743980
1976.11,1.973185,0.106868,-0.714614,-0.007954,0.000244,0.003555,0.914879,-0.106665,0.389383,0.007500,0.001318,0.000067,36.707783,-12.170995,29.730955
1976.12,1.973132,0.106865,-0.714584,-0.004240,-0.000981,0.001125,0.914900,-0.106662,0.389335,0.006472,0.000613,0.000970,36.707783,-12.170995,29.730955
1976.13,1.973120,0.106898,-0.714542,-0.004249,-0.002204,0.003591,0.914901,-0.106694,0.389323,0.003739,0.001698,0.002264,36.711754,-12.174345,29.724686
1976.14,1.973158,0.106901,-0.714535,-0.000532,0.000203,-0.000071,0.914886,-0.106697,0.389357,0.002594,0.000542,0.004442,36.711754,-12.174345,29.724686
1976.15,1.973145,0.106904,-0.714529,-0.001774,-0.008255,0.002380,0.914891,-0.106700,0.389345,0.002208,0.001003,0.003447,36.710648,-12.176590,29.725128
1976.16,1.973022,0.106878,-0.714512,-0.000524,-0.011866,-0.001309,0.914941,-0.106675,0.389233,0.004324,0.001465,0.002277,36.710648,-12.176590,29.725128
1976.17,1.973021,0.106834,-0.714500,-0.004239,-0.004603,0.001123,0.914946,-0.106631,0.389235,0.002473,0.001971,0.002321,36.714996,-12.175861,29.720058
1976.18,1.973040,0.106830,-0.714502,-0.000539,-0.003434,0.002394,0.914939,-0.106627,0.389252,0.001275,0.002226,0.005142,36.714996,-12.175861,29.720058
1976.19,1.973060,0.106827,-0.714493,-0.004234,-0.003386,-0.000109,0.914932,-0.106624,0.389271,0.000947,0.001155,0.002560,36.715004,-12.173801,29.720894
1976.20,1.973106,0.106840,-0.714450,-0.006653,0.001454,0.000961,0.914912,-0.106637,0.389312,-0.000331,0.001107,0.003480,36.715004,-12.173801,29.720894
1976.21,1.973184,0.106851,-0.714407,-0.006658,0.005070,0.002196,0.914881,-0.106647,0.389383,-0.000788,0.002155,0.004141,36.715004,-12.173801,29.720894
1976.22,1.973274,0.106836,-0.714368,-0.004184,0.005056,0.000987,0.914847,-0.106632,0.389466,0.000558,0.002598,0.002472,36.713013,-12.174940,29.722883
1976.23,1.973345,0.106804,-0.714329,-0.005409,0.001459,-0.001493,0.914823,-0.106601,0.389532,0.002719,0.002063,0.004785,36.713013,-12.174940,29.722883
1976.24,1.973420,0.106807,-0.714269,-0.006648,0.002670,-0.000271,0.914793,-0.106604,0.389601,0.001909,0.001441,0.003466,36.708202,-12.175793,29.728474
1976.26,1.973527,0.106806,-0.714257,-0.001728,0.003805,0.004710,0.914752,-0.106603,0.389699,-0.000445,0.002965,0.004787,36.708202,-12.175793,29.728474
1976.27,1.973630,0.106836,-0.714235,-0.005427,0.005053,0.003441,0.914709,-0.106633,0.389792,-0.001562,0.002324,0.002756,36.704334,-12.175768,29.733261
1976.28,1.973663,0.106796,-0.714202,-0.002948,0.003839,0.000998,0.914700,-0.106593,0.389823,0.001880,0.004710,0.000451,36.704334,-12.175768,29.733261
1976.29,1.973722,0.106716,-0.714148,-0.005417,0.001446,0.000972,0.914685,-0.106513,0.389880,0.001453,0.004127,0.002881,36.697807,-12.177521,29.740601
1976.30,1.973814,0.106717,-0.714106,-0.005426,0.005054,0.003440,0.914649,-0.106515,0.389965,0.001123,0.003823,0.004216,36.697807,-12.177521,29.740601
1976.31,1.973874,0.106744,-0.714083,-0.002962,0.007440,0.004699,0.914623,-0.106541,0.390018,0.001958,0.000768,0.000958,36.696579,-12.173174,29.743896
1976.32,1.974009,0.106791,-0.714038,-0.007892,0.011122,0.002185,0.914565,-0.106588,0.390140,0.002122,0.000966,0.003186,36.696579,-12.173174,29.743896
1976.33,1.974152,0.106817,-0.714006,-0.005418,0.012316,0.000977,0.914507,-0.106614,0.390270,0.002272,0.000093,0.002003,36.691837,-12.175308,29.748869
1976.34,1.974273,0.106823,-0.713972,-0.002948,0.006256,0.000999,0.914459,-0.106620,0.390380,0.001618,0.000617,0.004120,36.682854,-12.179639,29.758175
1976.35,1.974351,0.106834,-0.713922,-0.005412,0.002662,-0.000260,0.914428,-0.106631,0.390451,0.004396,-0.000013,0.004706,36.682854,-12.179639,29.758175
1976.36,1.974415,0.106828,-0.713877,-0.007881,0.003892,-0.000284,0.914403,-0.106625,0.390510,0.003596,0.001873,0.004220,36.676876,-12.181456,29.764799
1976.37,1.974464,0.106845,-0.713814,-0.006592,0.005082,0.000821,0.914383,-0.106642,0.390554,0.001007,0.000730,0.000499,36.676876,-12.181456,29.764799
1976.38,1.974499,0.106874,-0.713723,-0.009054,-0.003343,-0.000441,0.914366,-0.106670,0.390585,0.001863,0.000530,0.003184,36.673576,-12.183353,29.768085
1976.39,1.974581,0.106866,-0.713670,-0.004118,0.005069,-0.000388,0.914334,-0.106663,0.390660,-0.002607,0.001011,0.002406,36.673576,-12.183353,29.768085
1976.40,1.974619,0.106827,-0.713623,-0.004107,-0.002161,-0.002857,0.914324,-0.106624,0.390696,0.000792,0.002391,0.004323,36.670063,-12.186189,29.771254
1976.41,1.974574,0.106702,-0.713551,-0.005331,-0.005758,-0.005337,0.914353,-0.106500,0.390661,0.004180,0.002786,0.000224,36.670063,-12.186189,29.771254
1976.42,1.974509,0.106665,-0.713512,-0.002883,-0.011857,0.000850,0.914383,-0.106463,0.390602,0.002289,0.002322,0.004509,36.672302,-12.180260,29.770920
1976.44,1.974459,0.106604,-0.713481,-0.002875,-0.007010,-0.001615,0.914408,-0.106403,0.390559,0.000326,0.004703,0.001622,36.672302,-12.180260,29.770920
1976.45,1.974434,0.106540,-0.713411,-0.006578,-0.006978,-0.001652,0.914424,-0.106339,0.390540,0.000157,0.003708,0.004343,36.676941,-12.176729,29.766651
1976.46,1.974429,0.106514,-0.713328,-0.009049,-0.000917,-0.001674,0.914428,-0.106313,0.390536,-0.002426,0.002446,0.001157,36.676941,-12.176729,29.766651
1976.47,1.974417,0.106491,-0.713249,-0.007813,-0.005759,-0.001663,0.914435,-0.106290,0.390526,-0.000846,0.002393,0.002632,36.679077,-12.174598,29.764893
1976.48,1.974480,0.106491,-0.713175,-0.007805,0.000296,-0.004127,0.914411,-0.106289,0.390583,-0.001386,0.000088,0.004833,36.679077,-12.174598,29.764893
1976.49,1.974562,0.106413,-0.713124,-0.004097,0.002688,-0.005322,0.914387,-0.106212,0.390661,-0.000507,0.001949,0.004602,36.679077,-12.174598,29.764893
1976.50,1.974588,0.106388,-0.713053,-0.006584,0.001471,-0.000415,0.914379,-0.106188,0.390686,0.001881,0.001543,0.002869,36.678085,-12.175499,29.765745
1976.51,1.974647,0.106362,-0.712981,-0.007814,0.001489,-0.001660,0.914358,-0.106161,0.390742,0.001398,0.002218,0.004034,36.678085,-12.175499,29.765745
1976.52,1.974586,0.106295,-0.712945,-0.001629,-0.008210,-0.004070,0.914388,-0.106095,0.390689,0.002070,0.003190,0.001691,36.676205,-12.172428,29.769316
1976.53,1.974410,0.106194,-0.712933,-0.001656,-0.009465,0.003328,0.914467,-0.105994,0.390532,0.004570,0.004569,-0.000639,36.676205,-12.172428,29.769316
1976.54,1.974223,0.106150,-0.712911,-0.005292,-0.015458,0.001917,0.914545,-0.105950,0.390362,0.006552,0.004464,0.000202,36.677460,-12.169603,29.768925
1976.55,1.973984,0.106154,-0.712858,-0.006530,-0.017871,0.003137,0.914637,-0.105955,0.390144,0.006048,0.003141,-0.000633,36.677460,-12.169603,29.768925
1976.56,1.973812,0.106168,-0.712834,-0.004069,-0.019115,0.005626,0.914703,-0.105969,0.389986,0.006333,0.003491,0.004561,36.689968,-12.163416,29.756039
1976.57,1.973641,0.106187,-0.712798,-0.006544,-0.015478,0.006836,0.914768,-0.105987,0.389829,0.004437,0.002899,0.002688,36.689968,-12.163416,29.756039
1976.58,1.973517,0.106252,-0.712790,-0.004080,-0.011884,0.008095,0.914810,-0.106052,0.389712,0.004013,0.001972,0.002789,36.702110,-12.165257,29.740311
1976.59,1.973421,0.106317,-0.712754,-0.005306,-0.008235,0.005619,0.914841,-0.106116,0.389622,0.001770,0.001273,0.001842,36.702110,-12.165257,29.740311
1976.61,1.973404,0.106355,-0.712702,-0.007771,-0.004582,0.004363,0.914844,-0.106155,0.389605,0.001553,0.002425,0.003218,36.710011,-12.169613,29.728771
